ax,ay,az,gx,gy,gz,mx,my,mz,q_gt_w,q_gt_x,q_gt_y,q_gt_z
0.584384288003836,1.0703902122654374,8.974228125378163,-0.46659981288666796,0.8841960163650914,0.5827165680218508,9.00828008170441,-5.404983293098213,-43.30382513850152,0.4966618622725507,0.03429202760355992,-0.051001564362099606,0.8657654947151784
0.47451228800383594,1.0183972122654374,8.461165125378162,-0.5006895838366212,0.8074957770569486,0.5528888911052677,10.04650728048766,-6.088486551348383,-43.828022623283225,0.495938181064155,0.03269980155473686,-0.05109471674578152,0.8662363265655205
0.3783742880038359,0.5534032122654374,8.264965125378161,-0.5326483077698894,0.6743323911175373,0.5262569120490862,11.084734479270914,-6.77198980959856,-44.35222010806493,0.49519980631236393,0.03129795566608898,-0.051372976428089696,0.8666939523801005
0.27340728800383585,0.05015021226543746,8.015791125378161,-0.5624759846864724,0.5560845889656695,0.5166698184678814,10.19482545174241,-6.923879422543039,-43.97779333322085,0.49443437746804425,0.030271856505882582,-0.05201664724974567,0.867128900158662
0.3067612880038358,-0.2853517877345626,8.159017125378163,-0.5880433128989375,0.39415992228264346,0.5017542346803379,9.30491642421391,-7.075769035487526,-43.60336655837678,0.493667839977006,0.0292456894685303,-0.05266020143694436,0.8675619036152801
0.45096828800383576,-0.5100007877345626,8.279680125378162,-0.6061545945468827,0.2748474692870591,0.4953628389595346,9.230757338586535,-6.468210583709586,-43.60336655837678,0.4929125023798508,0.028484963793824772,-0.05354885905052775,0.8679622062795621
0.5706502880038357,-0.7974337877345627,8.527873125378163,-0.6200020368322057,0.14381513036433285,0.49323179194284955,9.156598252959157,-5.860652131931659,-43.60336655837678,0.4921566988870939,0.027736481202555383,-0.054448767084443184,0.8683592592435707
0.7089712880038357,-0.9838237877345628,8.432716125378162,-0.6253287817092923,0.06817954189990658,0.4996249329929048,9.156598252959157,-5.860652131931659,-43.2289397835327,0.49137462034893403,0.02713814908370508,-0.0552529529408794,0.8687701735974623
1.0689982880038358,-1.1711947877345628,8.326768125378162,-0.616806338971804,0.015980234631260158,0.5187991201553145,9.156598252959157,-5.860652131931659,-42.85451300868863,0.4905730531803386,0.026650764660384955,-0.05598639710797297,0.8691911985145766
1.4035192880038356,-1.219263787734563,8.466070125378163,-0.605088198373914,-0.014913838458291471,0.5496931932448661,9.453234595468658,-6.164431357820626,-43.2289397835327,0.4897356419268252,0.026179863551934197,-0.056728021880855246,0.8696295460162378
1.6438642880038357,-1.3193257877345628,8.236516125378163,-0.5582156359823544,-0.03302337477698464,0.5955011047927092,9.749870937978159,-6.468210583709586,-43.60336655837678,0.4887520523139309,0.02577739050390079,-0.05750380958976639,0.8701438210895909
1.7586412880038358,-1.3487557877345628,8.020696125378162,-0.5124077244345112,-0.04793895856452819,0.6381133184801508,9.89818910923291,-5.7087625189871725,-43.828022623283225,0.48776748726997315,0.025374866010421143,-0.058279482534960673,0.8706563595660156
2.0313592880038356,-1.4733427877345628,8.111929125378163,-0.4325100419367148,-0.07563558846442621,0.697768672313317,10.04650728048766,-4.949314454264759,-44.05267868818967,0.4866569325796235,0.025133071338643006,-0.0589196703746009,0.8712415458070323
2.151041288003836,-1.506696787734563,8.077594125378162,-0.34941666157851675,-0.10439861453729278,0.7457076308778453,10.04650728048766,-4.949314454264759,-44.05267868818967,0.4855167622870839,0.024928019458979198,-0.059528757223179955,0.8718419549709592
2.466923288003836,-2.095296787734563,7.9147481253781615,-0.22158176584544415,-0.1459461773810178,0.8213432193422715,10.04650728048766,-4.949314454264759,-44.05267868818967,0.4842341088090582,0.024952619915516918,-0.05997585805689675,0.8725236908391589
2.946632288003836,-2.4592477877345633,7.138777125378162,-0.12250989618523801,-0.1811005991746876,0.875673573627603,9.00828008170441,-5.177148873681483,-44.2024493981273,0.48276498201391177,0.025277796492504605,-0.06021094671894398,0.8733118841747199
0.8002042880038356,-1.6548277877345627,8.207086125378163,0.017044885474976592,-0.24182234918082232,0.968355792896258,7.970052882921155,-5.404983293098213,-44.35222010806493,0.48127483779812363,0.025611697711209056,-0.0604390597298829,0.8741085124294968
1.1975092880038356,-1.746060787734563,8.341483125378163,0.11505210429146616,-0.286565609884949,1.0546431257856055,8.563325567940158,-5.101204067209246,-44.127564043158486,0.47942894901063593,0.026104392798026572,-0.06054417140005654,0.8751004781376163
1.5330112880038353,-3.3558817877345626,8.700529125378162,0.16938245857679768,-0.30467514620364217,1.1718262770937566,9.156598252959157,-4.7974248413202725,-43.90290797825204,0.4775808332285552,0.02659696662737366,-0.06064900183660293,0.8760883789179977
2.913278288003836,-2.8477237877345636,8.753503125378163,0.16086001583930934,-0.30467514620364217,1.2655731472061282,9.156598252959157,-4.7974248413202725,-43.90290797825204,0.4753689962374013,0.027003028310843412,-0.060852278766815954,0.8772640161588615
-1.2736297119961644,0.06977021226543763,9.807097125378162,0.14914187524141942,-0.3259803803827369,1.4179107203079493,9.156598252959157,-4.7974248413202725,-43.90290797825204,0.4729772228598515,0.027366699946646197,-0.06110335474233504,0.8785271711387449
0.40289928800383573,-0.9122107877345627,10.267186125378164,0.10652966155397785,-0.33982956799731195,1.5532034079347938,9.082439167331785,-5.253093680153726,-43.60336655837678,0.4704578091533805,0.027661253335922367,-0.06147655520626299,0.8798437009096897
0.15372528800383578,-0.33734478773456256,9.208687125378162,-0.05433035428533152,-0.3195889846619337,1.7012788870032447,9.00828008170441,-5.7087625189871725,-43.30382513850152,0.46763185959769377,0.02778778523290603,-0.062147586036697684,0.881297884049919
0.17726928800383568,-1.2379027877345625,10.430032125378162,-0.19601443763297918,-0.31852433381821715,1.7992861058197342,8.934120996077034,-5.404983293098213,-43.60336655837678,0.4648009686078555,0.027914023498247342,-0.06281796015780476,0.8827427545751662
0.7766602880038356,-2.416083787734563,11.268787125378164,-0.339829567997312,-0.3398295679973119,1.894097626775822,8.859961910449659,-5.101204067209246,-43.90290797825204,0.4618251347700051,0.027882636033736204,-0.06386676529586265,0.8842291217739441
0.9493162880038357,-2.167890787734563,9.994468125378162,-0.4218582975117935,-0.35048305775148525,1.9260563507090904,8.489166482312786,-5.329038486625962,-43.90290797825204,0.45882987673548536,0.027835446155923628,-0.06495203971604976,0.8857096390403151
2.170661288003836,-0.7876237877345629,10.956829125378164,-0.5209301671719996,-0.3323735214327921,1.9484279810611538,8.11837105417591,-5.556872906042693,-43.90290797825204,0.4558807391698499,0.027647506951572615,-0.06613306445072459,0.8871498096712136
1.825349288003836,0.16492721226543725,11.066701125378161,-0.5880433128989375,-0.29295700560575216,1.9473633302174371,8.11837105417591,-5.556872906042693,-43.6782519133456,0.45297199316744535,0.027334658556068505,-0.06739894773313518,0.8885530775885037
3.0466942880038363,0.40036721226543714,10.022917125378163,-0.6413090163405525,-0.21519037012464076,1.9079468143903973,8.11837105417591,-5.556872906042693,-43.45359584843915,0.450085755921182,0.02696412000071402,-0.06860331810319863,0.8899378255219165
1.873418288003836,0.8741902122654374,12.345925125378162,-0.6828548338550254,-0.1310323389227262,1.844029366523861,8.489166482312786,-5.7087625189871725,-43.45359584843915,0.4473541432875257,0.026266270475899554,-0.06946088956070602,0.891268499578105
0.9198862880038358,-0.6296827877345627,9.994468125378162,-0.6711366932571355,-0.049003609408244705,1.7779808716406396,8.859961910449659,-5.860652131931659,-43.45359584843915,0.4446178536451304,0.025568146341855717,-0.0703177348168529,0.8925898555791825
0.8051092880038356,-1.7558707877345627,8.451355125378162,-0.6487650629050722,0.017044885474976703,1.7161927254615363,8.415007396685407,-5.936596938403903,-43.90290797825204,0.4420590900371736,0.024740356351480038,-0.07128712987268153,0.8938063665009461
-3.352368711996164,0.6681802122654379,9.481405125378162,-0.6221330838488908,0.1427504795206163,1.642688184013795,7.970052882921155,-6.012541744876146,-44.35222010806493,0.43955095495222773,0.02387336770857177,-0.07228995409928331,0.8949855768956052
-1.8249517119961645,-1.6165687877345625,10.521265125378163,-0.5358440056302911,0.22903955773921592,1.6203165536617317,7.970052882921155,-6.012541744876146,-44.35222010806493,0.43718096887933006,0.022898081694368484,-0.07301594247908594,0.8961122421038226
-1.833780711996164,2.527175212265438,5.9468621253781615,-0.4261186462159115,0.37498398979098174,1.5148515429514704,7.970052882921155,-6.012541744876146,-44.35222010806493,0.43503207433276403,0.02175210224270754,-0.07330565009568948,0.8971623164254079
-1.2883447119961642,1.9954732122654377,11.943715125378164,-0.34835201073480015,0.46659981288666813,1.4147150224475475,8.11837105417591,-6.012541744876146,-44.65176152794019,0.43288377191800215,0.020606872420490793,-0.07358882744026347,0.8982046989940856
-1.9927027119961644,0.026606212265437724,9.874786125378163,-0.17896955215800248,0.5667380787198427,1.2538550066082381,8.266689225430657,-6.012541744876146,-44.95130294781545,0.43123572583811665,0.019584817375953988,-0.07305246888032499,0.8990636910028746
-1.336413711996164,-0.07443678773456236,5.261143125378162,-0.03089407308955155,0.6221330838488908,1.1238890638584804,8.266689225430657,-5.7087625189871725,-44.127564043158486,0.42958561577772614,0.018562668594560898,-0.07251576067664742,0.8999183799128719
-0.2965537119961644,-1.4821717877345626,6.128347125378161,0.14168408334764776,0.6455693650446706,0.9736807924440926,8.266689225430657,-5.404983293098213,-43.30382513850152,0.4282762750874939,0.01779382108821054,-0.07173752347540487,0.9006200863038077
-0.6850297119961642,-0.021462787734562436,7.9961711253781615,0.2780431671474607,0.6231994800218592,0.84584589671102,8.266689225430657,-5.404983293098213,-43.30382513850152,0.42716983163705335,0.0171758939024729,-0.0708153536654074,0.9012303308772215
0.584384288003836,0.6878002122654374,8.537683125378162,0.41014015691390354,0.5678027295635593,0.7212066988383489,8.266689225430657,-5.404983293098213,-43.30382513850152,0.42618816473407856,0.016628242371712627,-0.06981980449533777,0.9017828700393785
0.8629882880038361,1.5402892122654377,9.840451125378163,0.5880433128989376,0.4634041150262664,0.5624759846864725,8.192530139803285,-5.253093680153726,-43.37871049347034,0.42559166618172384,0.016296115585641383,-0.06859977434173169,0.9021641986100688
-0.7281937119961643,0.4052722122654375,8.959513125378162,0.6871169278883955,0.3941599222826433,0.4420988808471717,8.11837105417591,-5.101204067209246,-43.45359584843915,0.4249942738852613,0.015963954577665796,-0.06737960012834017,0.9025436326325321
-0.7801867119961647,-3.613884787734563,7.273174125378161,0.697768672313317,0.3813771308410368,0.2961527034661538,8.415007396685407,-6.316320970765106,-43.90290797825204,0.4246178785127197,0.015612623801921256,-0.0660461101110456,0.9028254618499506
-2.438076711996165,-5.625915787734563,11.114770125378163,0.6349176206197492,0.42505399537219496,0.19494978678926264,8.711643739194907,-7.5314378743209724,-44.35222010806493,0.42427510644079713,0.01525828168236349,-0.06469486676853688,0.9030904678428144
0.6422632880038354,-3.6854977877345627,12.274312125378161,0.6839212300279941,0.454881672288778,0.1587289688226243,8.711643739194908,-6.771989809598559,-44.35222010806493,0.4240220663775098,0.014783063855404363,-0.0632438446059624,0.9033199678781882
2.697458288003836,-1.1613847877345629,10.252471125378163,0.746772281721562,0.5528888911052676,0.12677024488935612,8.711643739194908,-6.012541744876146,-44.35222010806493,0.4238642619666187,0.01417932811936597,-0.06168671768610607,0.9035113629294831
1.9450312880038358,-0.7876237877345629,11.704351125378164,0.751034375754932,0.6572875056425603,0.12357454702895453,8.192530139803285,-6.012541744876146,-44.50199081800256,0.4236965598764033,0.013557130004110211,-0.06009508078289573,0.9037068167501285
1.9931002880038355,-1.420368787734563,10.674301125378165,0.7659482142132236,0.7957776364590585,0.14275047952061623,7.673416540411654,-6.012541744876146,-44.65176152794019,0.423452481271077,0.012776236608357226,-0.05820754681318846,0.9039561081034223
2.3001532880038362,-1.5155257877345627,10.669396125378162,0.7819284488444838,0.891653808258863,0.16405571369971098,8.11837105417591,-6.999824229015283,-43.90290797825204,0.42320658423396085,0.011995288347617445,-0.05631976288284043,0.9042015175984288
2.170661288003836,-1.0367977877345629,10.597783125378163,0.831996709096445,0.9864653292149509,0.19068769275589245,8.563325567940156,-7.987106713154419,-43.15405442856389,0.4229829969465204,0.011106960399473117,-0.05425471385325921,0.9044437217149144
1.940126288003836,-0.7160107877345628,10.204402125378163,0.8639554330297131,1.030142193746109,0.18749199489549084,9.082439167331785,-6.771989809598559,-43.00428371862626,0.42276637332387584,0.010177533008542263,-0.05212168475525463,0.904681347982101
1.906772288003836,-0.4187677877345628,10.478101125378164,0.9001762509963516,1.055709521958574,0.18003594833097109,9.601552766723412,-5.556872906042693,-42.85451300868863,0.4225859956479976,0.00922481366642021,-0.04997191951900006,0.9048971136845323
1.331906288003836,-0.35696478773456275,10.305445125378164,0.9257435792088164,1.057840568975259,0.150206526085136,9.601552766723412,-5.556872906042693,-42.85451300868863,0.42247718673041107,0.008227483611289992,-0.047790326649261645,0.9050753669637355
0.9493162880038359,-0.4432927877345626,9.908140125378162,0.9342660219463047,1.0493181262377707,0.12037884916855289,9.601552766723412,-5.556872906042693,-42.85451300868863,0.42236592844713067,0.00723010585626796,-0.04560845670897298,0.9052483729523773
0.6422632880038358,-0.006747787734562598,10.333894125378162,0.9065676467171547,1.0237507980253056,0.06604849488322141,9.379075509841286,-6.392265777237349,-42.704742298751,0.42244077398018565,0.006345684430654664,-0.04364540162064714,0.9053168526463543
0.8384632880038358,-0.11269578773456261,10.114150125378162,0.8692821779067998,0.9928567249357542,0.015980234631260082,9.156598252959157,-7.227658648432006,-42.55497158881337,0.4225210936969968,0.005465685831538636,-0.04169077639472579,0.9053772312263489
0.8198242880038359,-0.22256778773456262,10.483006125378163,0.8106914749173502,0.9204168343317295,-0.053265703441614944,9.00828008170441,-7.075769035487526,-42.55497158881337,0.4227220858677309,0.004711796884674564,-0.039951274320369885,0.9053660766617728
0.17236428800383582,0.10802921226543746,11.019613125378163,0.7446429800341289,0.8415838026776497,-0.11398745344774966,8.859961910449659,-6.923879422543039,-42.55497158881337,0.4230099227192841,0.004048690784862647,-0.03836663325538084,0.905303382759946
-0.22003571199616428,-0.5580697877345626,10.875406125378163,0.6370469223071824,0.7041618133633721,-0.191754088928861,8.859961910449659,-6.923879422543039,-42.55497158881337,0.4233418699796471,0.0034329887199721822,-0.036945166110841574,0.9052098819675063
-0.3632617119961643,-0.4570267877345625,10.818508125378163,0.529452609909488,0.5965657556364257,-0.24928014107459412,8.859961910449659,-6.923879422543039,-42.55497158881337,0.4238537102919836,0.003006005963874168,-0.03617355633235925,0.9050030221066305
-0.44468471199616433,-0.4913617877345625,10.573258125378162,0.3526141047681704,0.46020841716586475,-0.3131975889411305,9.082439167331783,-7.5314378743209724,-42.92939836365745,0.42436509179648285,0.002579019953872594,-0.035401907397180306,0.904795182609458
-0.5692717119961643,-0.5050957877345624,10.837147125378163,0.20560153121418406,0.3590055004889736,-0.35261410476817034,9.304916424213909,-8.138996326098907,-43.30382513850152,0.42491473172365185,0.002210963272701588,-0.03515075385088131,0.9045479572191509
-0.8135407119961644,-0.9985387877345624,10.908760125378162,0.015980234631260113,0.25034479191831066,-0.3813771308410369,10.565620879879285,-7.835217100209939,-43.15405442856389,0.4254726191044137,0.0018558287541258133,-0.03501372991388435,0.9042917919618555
-0.5310127119961642,-0.4481977877345624,10.732180125378163,-0.11611675513518271,0.17790490131428602,-0.38031073466806836,11.826325335544661,-7.531437874320973,-43.00428371862626,0.42597930423682717,0.0014998811713693959,-0.03518970375666685,0.904047049366292
-0.7281937119961643,-0.026367787734562432,10.607593125378163,-0.28763026072866554,0.08842012523528477,-0.3483520107348002,11.826325335544661,-7.531437874320973,-43.00428371862626,0.4264206943954873,0.001142896932651356,-0.035764850595487334,0.9038168844626406
-1.1922067119961643,-0.13623978773456238,10.732180125378163,-0.4016177141764152,0.033023374776984755,-0.3068061932203272,11.826325335544661,-7.531437874320973,-43.00428371862626,0.4268478324713002,0.0007779552491453696,-0.036366067977735166,0.903591628889966
-1.2402757119961643,-0.43838778773456244,10.607593125378163,-0.5305172607532044,-0.012782791441606406,-0.2301042085829324,11.084734479270912,-7.68332748726546,-42.62985694378219,0.42705141521550644,0.00028576681031504837,-0.03738458261346245,0.9034541494080264
-1.4649247119961641,-0.6493027877345624,10.272091125378163,-0.6136106411114024,-0.01810953631869309,-0.16405571369971098,10.34314362299716,-7.835217100209939,-42.25543016893811,0.42725442572445477,-0.00020642201143368163,-0.03840304715504292,0.903315459326379
-1.302078711996164,-0.5433547877345624,9.908140125378162,-0.7116178599278921,0.00958709358120494,-0.055395005129048026,11.38137082178041,-7.83521710020994,-41.806118039125224,0.4271881999758961,-0.0008707099454476506,-0.03965425415968861,0.9032923246616147
-2.433171711996164,-0.7160107877345623,10.195573125378163,-0.7776663548111135,0.03728546881035496,0.025567328212464935,12.41959802056366,-7.83521710020994,-41.35680590931233,0.42699352624999354,-0.0016166550948702122,-0.041015829142054094,0.9033225430192088
-2.7873127119961643,-0.4913617877345622,9.793363125378162,-0.8533036886047917,0.08735372906231631,0.15233757310182108,12.048802592426787,-8.290885939043394,-42.25543016893811,0.42668995323424463,-0.002465721822494286,-0.04237147082100924,0.9034014957289569
-3.051201711996164,-0.23237778773456214,9.864976125378163,-0.9161547402983594,0.13529268762684454,0.2460844432141925,11.67800716428991,-8.74655477787684,-43.15405442856389,0.42613047172804064,-0.0035582347322966716,-0.043713213991630244,0.903597983039443
-2.768673711996164,-0.6394927877345623,10.391773125378162,-0.9971170736398725,0.20347222952675104,0.3579391043160051,11.67800716428991,-8.74655477787684,-43.15405442856389,0.42556956460830375,-0.004650735738074536,-0.04505481092030526,0.9037914473755155
-2.030961711996164,-0.7258207877345624,10.252471125378163,-1.0482517300648024,0.2546051406224289,0.4303807402492817,11.67800716428991,-8.74655477787684,-43.15405442856389,0.42480410869255686,-0.005991657784254893,-0.04648654326527073,0.9040711092442703
-1.6572007119961643,-0.8553127877345624,10.822432125378162,-1.0802104539980706,0.32385107869530394,0.5092120265741096,11.752166249917286,-8.138996326098907,-42.704742298751,0.42401830019479614,-0.007355067431823829,-0.047926245192914996,0.9043547197337438
-0.6889537119961644,-1.1378407877345627,9.855166125378162,-1.079145803154354,0.37924608382435193,0.547562146228181,11.826325335544661,-7.531437874320973,-42.25543016893811,0.4231661690890985,-0.008827945373093412,-0.04924499390212968,0.9046697691945532
0.05268228800383565,-1.3673947877345625,10.013107125378163,-1.065296615539779,0.4687308599033533,0.5678027295635593,11.23305265052566,-6.847934616070797,-42.704742298751,0.42225634181272825,-0.010395476609055154,-0.05045909875042338,0.9050112680062599
-0.0424747119961643,-0.9651847877345625,9.979753125378164,-1.037599985639881,0.5230612141886848,0.5678027295635593,10.639779965506658,-6.164431357820626,-43.15405442856389,0.42134746465579254,-0.01192987083405221,-0.05159965940469443,0.9053515711365053
-3.218952711996164,0.4003672122654378,11.426728125378164,-0.9289392770692179,0.5571509851386379,0.5773915684740161,10.639779965506658,-6.164431357820626,-43.15405442856389,0.42045324117319927,-0.013284676263352859,-0.0523422653943951,0.9057057340090724
0.7903942880038357,-0.6581317877345627,10.051366125378163,-0.7584921676487035,0.5230612141886848,0.6200020368322057,10.639779965506658,-6.164431357820626,-43.15405442856389,0.419557625137537,-0.01463943769342863,-0.05308469802502707,0.9060568971585408
1.1406112880038357,-0.4187677877345627,8.519044125378162,-0.5262569120490861,0.476186906467873,0.602958896686481,11.23305265052566,-6.847934616070797,-42.704742298751,0.4187475495324833,-0.015590140966450092,-0.053242731756741477,0.906406447892041
1.5477262880038356,-1.094676787734563,8.523949125378163,-0.3739193389472651,0.4495549274116915,0.5731294744406459,11.826325335544661,-7.531437874320973,-42.25543016893811,0.41796202904979346,-0.016423497189310007,-0.05323102372838678,0.9067549112772871
1.5281062880038356,-1.1515747877345628,8.811382125378163,-0.1906876927558924,0.45062132358465995,0.5433017975240628,11.529688993035162,-6.544155390181837,-42.1805448139693,0.417210726812123,-0.017166335841776525,-0.05297065334762574,0.9071023295255026
3.0368842880038365,-1.0181587877345628,9.189067125378163,-0.043676864531158044,0.4580773701491797,0.5092120265741096,11.23305265052566,-5.556872906042694,-42.10565945900048,0.4165123227234178,-0.017770144336212147,-0.05232836057290284,0.9074488689009239
3.1379272880038362,-1.041702787734563,10.185763125378163,0.18962304191217597,0.4665998128866681,0.45062132358465995,11.23305265052566,-5.556872906042694,-42.10565945900048,0.41581549382330574,-0.01837120907329163,-0.05167478995820539,0.9077938586796241
1.9646512880038358,-0.6581317877345628,10.478101125378164,0.36326584919309185,0.47938434965752647,0.4058780628805333,11.23305265052566,-5.556872906042694,-42.10565945900048,0.41527319713099153,-0.018775904465716885,-0.05021204821761588,0.9081158446860681
1.739021288003836,-0.46683678773456283,10.070986125378163,0.5944364539489928,0.5156034222949127,0.37072364108686356,11.158893564898289,-6.012541744876147,-42.405200878875746,0.4147297787224617,-0.019180549141562656,-0.04874917084662608,0.9084353777331731
0.9444112880038359,-0.13133478773456264,9.951304125378163,0.7446429800341289,0.5678027295635591,0.35261410476817034,11.084734479270914,-6.4682105837095865,-42.704742298751,0.4142550901274714,-0.019652061741780965,-0.04686261311452397,0.9087411139949907
0.9100762880038359,-0.09798078773456263,9.557923125378162,0.926808230052533,0.6647452975363322,0.3483520107348002,11.752166249917288,-6.0884865513483835,-43.528481203407964,0.4138189720942705,-0.020162279555425506,-0.04473028613140546,0.9090360511666044
0.029138288003835805,-0.021462787734562522,9.931684125378164,1.0312068445898257,0.7563611206320185,0.3504830577514853,12.419598020563662,-5.708762518987173,-44.35222010806493,0.413339820353907,-0.020731807804513457,-0.04249446442484803,0.9093484511166235
-2.677440711996164,-0.11760078773456219,10.961734125378163,1.1558477877917488,0.8948495061192645,0.3653968962097769,12.19712076368154,-5.936596938403904,-42.92939836365745,0.41273668104006095,-0.02147721200453493,-0.03995242927978979,0.9097202673806882
-2.298774711996164,1.1037442122654377,12.360640125378163,1.2453325638707502,0.9619626518462026,0.39309527143892686,11.974643506799413,-6.164431357820627,-41.50657661924996,0.4121304381137522,-0.02222245470463186,-0.03741009370866544,0.9100852429172649
-2.3272237119961643,1.0752952122654378,10.386868125378163,1.3444044335309564,0.9875299800586674,0.4538170214450616,11.974643506799413,-6.164431357820627,-41.50657661924996,0.41140139869961545,-0.022877149904490718,-0.03459852012097238,0.9105100040997279
-1.4796397119961642,0.17473721226543767,10.415317125378161,1.3806252514975947,0.9971170736398722,0.4815136513449596,11.974643506799413,-6.164431357820627,-41.50657661924996,0.41065097014779584,-0.023518334406817477,-0.03174704845616097,0.9109362181721207
-1.4080267119961642,0.016796212265437656,10.368229125378162,1.3944744391121695,0.9939213757794706,0.4974938859762197,12.19712076368154,-6.847934616070797,-42.10565945900048,0.40995275224992084,-0.02415427938747513,-0.028890095260594467,0.9113290701529392
-0.6889537119961643,-0.27063678773456246,9.802192125378163,1.3902123450787995,0.9971170736398722,0.49323179194284955,12.41959802056366,-7.531437874320973,-42.704742298751,0.409308836299493,-0.02478479898242555,-0.0260275015509885,0.9116877532519396
-0.6752197119961643,-0.22256778773456246,10.281901125378164,1.3582536211455312,0.9928567249357542,0.47831795348455797,12.716234363073161,-7.60738268079321,-42.77962765371982,0.4086649918422225,-0.025413975478694492,-0.02317621868159432,0.9120361380891591
-0.9047737119961643,-0.42857778773456245,9.850261125378163,1.3412087356705549,0.9885963762316361,0.4623394641825499,13.012870705582662,-7.68332748726546,-42.85451300868863,0.4080482635460646,-0.026033932541375045,-0.020417774047751868,0.9123606542790016
-0.9430327119961641,-0.42857778773456245,9.649156125378163,1.322032803178893,0.9790075373211792,0.4378367868138015,13.012870705582662,-7.68332748726546,-42.85451300868863,0.40742807539721126,-0.02665366886160984,-0.017659156291029387,0.9126774345372133
-1.5375187119961644,-0.5767087877345624,10.252471125378163,1.3209681523351766,0.9715514907566594,0.4207919013388249,13.012870705582662,-7.68332748726546,-42.85451300868863,0.4068444820616966,-0.02712655489283135,-0.014800844033423789,0.9129746176381328
-2.006436711996164,-0.3138007877345623,9.965038125378163,1.349731178408043,0.9289392770692179,0.4133358547743051,12.864552534327911,-8.21494113257115,-42.85451300868863,0.40627209777800205,-0.027544904867262278,-0.01190553897761808,0.9132592835140345
-2.5626637119961644,0.3758422122654378,10.478101125378164,1.395539089955886,0.8863270633817762,0.4186608543221398,12.716234363073161,-8.74655477787684,-42.85451300868863,0.4056866549431476,-0.027875341471852513,-0.008932329597626893,0.9135433853007898
-2.926614711996164,1.146908212265438,11.081416125378162,1.4733057254369972,0.8106914749173498,0.4271832970596281,12.567916191818414,-7.759272293737704,-42.25543016893811,0.40507968183983006,-0.028042064585814843,-0.00581399184788252,0.913832748085283
-3.1130047119961644,1.492220212265438,11.239357125378163,1.5414852673369037,0.7446429800341285,0.44103248467420314,12.419598020563662,-6.77198980959856,-41.6563473291876,0.4044685753139357,-0.028208501559276792,-0.002695594772315988,0.9141127861440945
-3.170883711996164,1.430417212265438,11.488531125378163,1.6320346942596218,0.6615495996759305,0.45594632313249467,12.419598020563662,-6.77198980959856,-41.6563473291876,0.40378626726357675,-0.027858539528026194,0.00041876173689247133,0.9144289894701069
-2.8206667119961644,1.224407212265438,11.345305125378161,1.6874296993886695,0.6008278496697957,0.4516859744283765,12.419598020563662,-6.77198980959856,-41.6563473291876,0.4030975765389899,-0.027491485764775496,0.0035329814486097064,0.9147371644581423
-2.2840597119961643,1.0183972122654377,11.162839125378163,1.7193884233219379,0.5273215628928025,0.4357057397971164,12.790393448700536,-8.21494113257115,-40.98237913446825,0.4024939048763265,-0.027075671568393172,0.006612789556293708,0.9149982707966237
-1.9730827119961643,0.28068521226543774,11.325685125378161,1.7183237724782212,0.4836446983616444,0.4005513180034466,13.161188876837413,-9.65789245554374,-40.308410939748924,0.40194876580301103,-0.02662559679970188,0.009668428335015505,0.9152239008887536
-1.5424237119961643,0.3758422122654377,10.947019125378162,1.6853003977012364,0.4335764381096831,0.33982956799731195,13.161188876837413,-10.72111974615512,-40.98237913446825,0.40147427343823344,-0.026184599444259857,0.01262925440479214,0.9154088029139579
-1.2785347119961643,0.5249542122654377,10.856767125378163,1.6203165536617317,0.4090737607409347,0.28336816669529535,13.161188876837413,-11.7843470367665,-41.6563473291876,0.4012820856066307,-0.02577913474077663,0.015227510621490812,0.9154650440642079
-1.1009737119961642,0.42881621226543765,10.856767125378163,1.506329100213982,0.3856374795451549,0.21199467226423924,13.754461561856411,-11.10084377851633,-40.90749377949945,0.40108710668307435,-0.02537349073216582,0.017825660924210517,0.9155149177557295
-1.2402757119961643,0.5681182122654376,10.770439125378163,1.397670136972571,0.37178829193057994,0.15659792180593923,14.347734246875413,-10.41734052026616,-40.1586402298113,0.4011241553531323,-0.02506440636274967,0.019810045223603336,0.9154664109808499
-1.4031217119961643,0.8692852122654378,10.511455125378163,1.219765235658285,0.36113480217640653,0.0958761717998045,14.347734246875413,-10.41734052026616,-40.1586402298113,0.40120895016758074,-0.024775529203541077,0.02166556011418283,0.9153950813517908
-1.2883447119961642,1.0615612122654376,10.559524125378163,1.0684923134001805,0.35261410476817023,0.059657099162418174,14.347734246875413,-10.41734052026616,-40.1586402298113,0.40117348340914755,-0.024665818233934607,0.02343172538339751,0.9153700824616119
-1.211826711996164,1.0272262122654376,10.832242125378164,0.8490415945714216,0.3206536355056501,0.022371630352063316,14.421893332502792,-11.10084377851633,-40.53306700465537,0.4009891216269296,-0.02477880501899185,0.025086874724091567,0.9154039457394054
-0.9194887119961641,0.7692232122654377,11.191288125378163,0.6807255321675924,0.290825958589067,-0.0053267448770866945,14.496052418130164,-11.7843470367665,-40.90749377949945,0.4008131270680391,-0.024898880221992478,0.026669032484016687,0.9154330372233664
-0.8616097119961641,0.7260592122654377,11.478721125378163,0.45381702144506164,0.23756200047670412,-0.030894073089551628,14.199416075620663,-11.936236649710986,-40.233525584780104,0.40077246459018123,-0.02512149100165272,0.027206126123382572,0.9154289535608564
-1.0391707119961642,0.7446982122654376,11.900551125378163,0.2897613077453506,0.19281873977257752,-0.046872562391559715,13.902779733111169,-12.088126262655466,-39.559557390060775,0.40073166597182064,-0.025344093247662264,0.027743210520957812,0.9154245589314791
-1.1441377119961642,1.1665282122654377,11.757325125378163,0.08628907821859967,0.1342280367831279,-0.05113465642492987,13.902779733111169,-12.088126262655466,-39.559557390060775,0.4007110194997946,-0.02559754185873852,0.02772169626747974,0.9154271965909028
-1.5326137119961643,1.1429842122654377,11.435557125378162,-0.058590702989449635,0.09907186966020613,-0.0436768645311581,13.902779733111169,-12.088126262655466,-39.559557390060775,0.40069964890745213,-0.02586520232659326,0.027442806694317087,0.9154330532784949
-1.6709347119961642,0.9889672122654376,10.990183125378163,-0.258867234655799,0.05965709916241821,-0.023436281195779857,14.496052418130164,-12.16407106912771,-39.7093280999984,0.40067803815658243,-0.026176430171516114,0.026963508699412886,0.9154479086442248
-1.5610627119961642,0.6112822122654377,10.587973125378163,-0.41120480775762003,0.04367686453115815,-0.001064650843716541,15.089325103149166,-12.240015875599953,-39.85909880993603,0.40063281663063516,-0.026587426437661134,0.02602522065463838,0.9154830107019482
-1.5610627119961642,0.23752121226543768,10.401583125378163,-0.6104149432510009,0.015980234631260158,0.030894073089551628,14.792688760639665,-12.847574327377886,-39.93398416490485,0.4005871734067872,-0.026998394718425422,0.02508690521624945,0.9155171491409978
-1.5228037119961644,-0.23237778773456233,10.089625125378163,-0.7414472821737271,-0.002131047016684986,0.06285279702281979,14.496052418130164,-13.45513277915582,-40.00886951987366,0.40037503002623004,-0.027444323048467244,0.0234625143089949,0.9156397516961609
-1.6424857119961642,-0.5727847877345623,9.620707125378162,-0.8788692714880046,-0.05433035428533137,0.10866070857066296,14.496052418130164,-13.45513277915582,-40.00886951987366,0.4001478784200598,-0.02789307580230124,0.021781047202420047,0.915767021518562
-1.7955217119961644,-0.5384497877345623,8.806477125378162,-0.9502445112483128,-0.11398745344774955,0.15340222394553762,14.496052418130164,-13.45513277915582,-40.00886951987366,0.3998024970748717,-0.02815053117007657,0.01998906681901513,0.9159508437330275
-1.7484337119961644,-0.6149677877345624,8.303224125378163,-1.0035102146899275,-0.22477746370584561,0.2269085107225308,14.273575161248042,-12.847574327377886,-39.93398416490485,0.3993570490928708,-0.028246718866913885,0.01810392279909075,0.9161813784357185
-1.8200467119961645,-0.9602797877345624,7.833325125378162,-1.007770563394046,-0.3291760782431384,0.2961527034661538,14.051097904365912,-12.240015875599953,-39.85909880993603,0.3988428680200349,-0.028229029496915154,0.016183672311059844,0.9164418024477846
-1.6473907119961646,-1.1859097877345623,7.675384125378162,-0.9640936988628879,-0.49642923513250303,0.3877685265618402,13.754461561856411,-11.63245742382202,-40.60795235962418,0.3979790221992702,-0.027622626159219087,0.014082079994527989,0.9168704289246159
-1.5228037119961646,-1.4586277877345624,7.479184125378162,-0.8895227612421781,-0.6508961099217572,0.4602084171658648,13.457825219346914,-11.024898972044086,-41.35680590931233,0.39711290218089706,-0.027016064975738895,0.011980407207839038,0.9172938160686718
-1.6709347119961646,-1.2477127877345624,7.7950661253781615,-0.7425119330174438,-0.8714132249234847,0.5571509851386378,14.125256989993284,-11.480567810877533,-41.28192055434352,0.3960018919806029,-0.02542334317252928,0.010294538857564074,0.9178399520828373
-1.7719777119961642,-0.7356307877345624,8.231611125378162,-0.5901743599156227,-1.067427662556464,0.6274598287259775,14.792688760639665,-11.936236649710986,-41.2070351993747,0.3948200248563903,-0.023554489288704412,0.008724979482862289,0.9184150525442033
-1.9201087119961644,-0.49528578773456233,8.815306125378163,-0.33343817227650885,-1.3571889703018147,0.7307937924195538,14.792688760639665,-11.936236649710986,-41.2070351993747,0.393531362493664,-0.02110719903394222,0.007532670785548055,0.919037981670866
-1.6473907119961644,-0.26082678773456236,9.256756125378162,-0.1097253594143797,-1.60114062117007,0.80642938088398,14.792688760639665,-11.936236649710986,-41.2070351993747,0.3920827543821332,-0.017794755153361107,0.006904629212342415,0.9197319101241361
-1.3413187119961643,-0.3903187877345624,9.715864125378163,0.19388339061629384,-1.9558857729549253,0.9076322975608712,14.421893332502792,-11.40462300440529,-40.98237913446825,0.39062520233708514,-0.014450188462869905,0.0062775338440838645,0.9204149802786434
-1.0676197119961643,-0.7160107877345625,10.257376125378162,0.4101401569139032,-2.241384986666906,0.9758118394607777,14.051097904365912,-10.8730093590996,-40.75772306956181,0.3889895112808825,-0.00954658206892475,0.005701289354349408,0.9211750746649412
-0.7370227119961644,-0.6777517877345625,10.439842125378163,0.6743323911175368,-2.627022466212061,1.065296615539779,13.68030247622904,-11.40462300440529,-40.98237913446825,0.3873430721947219,-0.004642711896797911,0.005124887334330624,0.9219097163924505
-0.4407607119961642,-0.45212178773456246,10.938190125378163,0.8330613599401611,-2.9263708675386164,1.130280459579284,13.309507048092163,-11.936236649710986,-41.2070351993747,0.38546170053069817,0.0012327711171549985,0.004410828268774616,0.9227124699999121
-0.6850297119961642,-0.4432927877345624,10.951924125378163,0.9939213757794704,-3.317335091960858,1.2048513971999935,13.309507048092163,-11.936236649710986,-41.2070351993747,0.3834372091366393,0.00765609681020471,0.0036190226545535333,0.9235281227478479
-0.8047117119961642,-0.12642978773456243,10.985278125378162,1.0493181262377704,-3.60603000353324,1.2762248916310495,13.309507048092163,-11.936236649710986,-41.2070351993747,0.3813177459253607,0.014400710551497201,0.002673450181328426,0.9243279985168374
-0.8478757119961642,0.3905572122654376,11.397298125378162,1.0365335894669119,-3.990602832234679,1.3784942044809092,12.64207527744579,-12.088126262655466,-41.6563473291876,0.37895479776320945,0.022065908665729606,0.001287688407857798,0.9251511761790965
-1.2069217119961644,0.5386882122654375,11.493436125378162,0.9822032351815804,-4.275037395102943,1.453065142101619,11.974643506799412,-12.240015875599953,-42.10565945900048,0.37656648360103134,0.029729629759914476,-9.815955928424197e-05,0.9259124272345597
-1.4796397119961642,0.26106521226543766,11.478721125378163,0.8426501988506176,-4.656412780614728,1.555332709622227,10.120666366115033,-12.16407106912771,-41.88100339409404,0.37384101447204815,0.038349752746336105,-0.002571515441323761,0.9266960557114399
-1.7386237119961643,0.6397312122654377,12.083017125378163,0.6924436727654818,-4.956825832784999,1.6362967882929917,8.266689225430655,-12.088126262655466,-41.6563473291876,0.371038485890993,0.04709946090444979,-0.00519561908291757,0.9274077249584324
-1.8965647119961642,0.5053342122654376,12.566650125378162,0.4634041150262658,-5.355247849101013,1.7428264498469697,8.266689225430655,-12.088126262655466,-41.6563473291876,0.3680205938037683,0.05632420918438957,-0.00853708803706335,0.9280708723604695
-2.140833711996164,-0.05972178773456226,12.144820125378162,0.264193979532885,-5.665249740181742,1.8280491318926009,8.266689225430655,-12.088126262655466,-41.6563473291876,0.364777570788922,0.06602678576400474,-0.01260278583255968,0.9286651480486745
-1.8386857119961642,0.08840921226543771,12.101656125378163,-0.015980234631260828,-6.08071489664348,1.9399055383236652,7.599257454784281,-12.771629520905643,-41.95588874906285,0.36146549099403413,0.07583785063030726,-0.01687065165503479,0.9291429924101842
-1.1254987119961644,-0.08326578773456239,10.300540125378163,-0.25460514062242956,-6.397108183445012,2.0208678716651782,6.931825684137904,-13.455132779155818,-42.25543016893811,0.3579146959592448,0.08651903301306799,-0.022676406390543802,0.9294607619131087
-0.5506327119961643,-0.17449878773456245,9.778648125378163,-0.5955011047927101,-6.808312991202633,2.111419043917148,6.709348427255781,-13.758912005044778,-43.75313726831441,0.35430645433872987,0.09718632878230896,-0.028478521481905647,0.9296293496474493
0.17726928800383573,-0.5531647877345626,9.323464125378162,-0.8511726415881075,-7.117248486110393,2.168945096062881,6.486871170373652,-14.062691230933744,-45.25084436769071,0.3505456145883595,0.10864152808580377,-0.03548086271298051,0.9295460713967835
0.9493162880038358,-0.9073057877345627,8.781952125378163,-1.1696952300770727,-7.532715387901383,2.2232754503482126,4.3362576871797724,-13.834856811517028,-44.576876172971375,0.34667988470391864,0.12036280562315145,-0.04290786590094417,0.9292388108597422
1.8832282880038358,-0.8553127877345629,8.470975125378162,-1.374233855776792,-7.860826815300805,2.250972080248111,2.1856442039859,-13.607022392100298,-43.90290797825204,0.3426112056289062,0.13267367130271668,-0.050595395209537895,0.9286847499039473
2.664104288003836,-1.425273787734563,8.422906125378162,-1.6075337622201264,-8.302923950818725,2.2680169657230875,2.1856442039859,-13.607022392100298,-43.90290797825204,0.33822040400014736,0.14606580614540135,-0.0587588117920609,0.9278033954614829
4.2543052880038355,-1.515525787734563,7.230010125378162,-1.7438911006906872,-8.640624217128604,2.277604059304292,2.1856442039859,-13.607022392100298,-43.90290797825204,0.3337396199928072,0.1594190806813167,-0.06690659579423518,0.9266752021075171
5.384417288003836,-1.6548277877345634,7.067164125378161,-1.8845105331946186,-9.088048097523611,2.2722790597564577,0.25750797767414313,-12.695684714433405,-43.60336655837678,0.3297259738355877,0.17347975991191736,-0.07622470313754491,0.9248650440527366
6.424277288003835,-1.9471657877345634,6.669859125378162,-1.9537547259382415,-9.431073363381323,2.2680169657230875,-1.6706282486376067,-11.784347036766498,-43.30382513850152,0.32562628063031,0.187506960741548,-0.08555025306003118,0.9227620599253652
6.922625288003836,-1.8176737877345637,6.598246125378162,-1.9974315904693996,-9.897674921597243,2.2744083614438906,-3.153809961185111,-12.923519133850121,-43.75313726831441,0.3211458333972484,0.20244360255368882,-0.09532748551195427,0.9202144380429158
7.142369288003836,-1.5351457877345636,6.808180125378161,-1.9867781007152265,-10.265201119494453,2.2925196430918358,-4.636991673732613,-14.062691230933744,-44.2024493981273,0.31635753500330693,0.2179673540784951,-0.10539659543883055,0.9172239095621936
7.243412288003836,-1.2428077877345636,7.129948125378162,-1.9132735592674852,-10.76802175034776,2.3436525541875133,-4.636991673732613,-14.062691230933744,-44.2024493981273,0.3112708356885702,0.2338501358858771,-0.11549078819855273,0.9138306509617486
7.243412288003836,-0.9504697877345636,6.794446125378162,-1.8333758767696888,-11.160050625613719,2.4065053512103334,-4.636991673732613,-14.062691230933744,-44.2024493981273,0.3053887796146378,0.2512556433560043,-0.125773284027985,0.9098293114601544
7.305215288003836,-0.8023387877345636,6.655144125378162,-1.7087366788970177,-11.6767204440816,2.516230710624713,-6.787605156926489,-12.695684714433405,-43.2289397835327,0.2993664613106193,0.2685457514427032,-0.13599801335619338,0.9054100958060939
7.688786288003835,-1.1515747877345635,5.912527125378162,-1.6203165536617332,-12.060226876610068,2.6121086277537695,-8.938218640120368,-11.32867819793305,-42.25543016893811,0.2925920135331872,0.2871569428756725,-0.1459054105029898,0.9003568264642899
8.192039288003837,-1.4056537877345636,5.390635125378162,-1.5468120122139921,-12.53428448139051,2.7527280602577004,-11.830422979587997,-10.569230133210636,-42.405200878875746,0.28554148109695243,0.3059079037538966,-0.1556854450507293,0.8947896172806277
8.388239288003836,-1.7176117877345638,5.6594291253781615,-1.5276360797223305,-12.86665625749405,2.8592577218116784,-14.722627319055626,-9.809782068488216,-42.55497158881337,0.27804073696866255,0.3249502654588954,-0.1657935268926655,0.8886018118395932
8.297006288003837,-1.7558707877345638,5.998855125378161,-1.516982589968157,-13.271469669530864,3.015855643617618,-14.722627319055626,-9.809782068488216,-42.55497158881337,0.2700163183744614,0.34435273359761576,-0.17630232447135694,0.8817198381920118
7.760399288003836,-1.5586897877345636,6.439324125378162,-1.516982589968157,-13.539923997767868,3.136234492786171,-14.722627319055626,-9.809782068488216,-42.55497158881337,0.26179176670528465,0.36358589233697747,-0.18678126490718505,0.8742900713484754
7.104110288003835,-1.2192637877345636,6.473659125378162,-1.5180489861411257,-13.850990539692315,3.293898810765078,-17.466513487268504,-9.961671681432703,-40.832608424530626,0.2529036819462993,0.38306775122058273,-0.1981238238117981,0.8660518322080976
6.246716288003835,-1.0181587877345633,6.334357125378162,-1.5350921262868504,-14.039548930760773,3.4227983573418674,-20.210399655481382,-10.113561294377183,-39.11024526024788,0.24384992931668786,0.4022986765544593,-0.20933659910963023,0.857246274467257
5.839601288003836,-1.2241687877345633,6.301003125378162,-1.5691818972368037,-14.222778831622897,3.591116165074949,-23.176763080576386,-9.050334003765801,-38.13673564565329,0.23429077642544552,0.42138884741316596,-0.22057093800588973,0.8478724742937274
5.653211288003836,-1.6646377877345635,6.071449125378162,-1.59794492330967,-14.308003258997777,3.7093639672268166,-26.14312650567139,-7.9871067131544145,-37.1632260310587,0.22441928558061536,0.44025018010167377,-0.2317277273537498,0.837924831685633
5.859221288003836,-2.0864677877345637,5.731042125378162,-1.6416217878408284,-14.347419774824818,3.8414609569932594,-27.77462638947364,-7.531437874320968,-35.36597751180713,0.2144090313222837,0.45873488970343557,-0.24271978952238354,0.8274528216342169
6.337949288003836,-2.7466807877345634,4.925641125378162,-1.6789072566511831,-14.303742910293659,3.911769800580599,-29.406126273275895,-7.075769035487522,-33.56872899255558,0.2042846764139665,0.47673834504042245,-0.25353217712590204,0.8165229675351213
6.955979288003836,-2.6613337877345637,4.561690125378162,-1.7673273818864679,-14.159927779929326,3.957577712128442,-29.406126273275895,-7.075769035487522,-33.56872899255558,0.19402488150008315,0.4944257245695819,-0.26417647380799536,0.8050517616458562
6.955979288003836,-3.082182787734564,3.072532125378162,-1.8493561114009494,-13.979891831598355,3.957577712128442,-29.406126273275895,-7.075769035487522,-33.56872899255558,0.18397245148630254,0.5110080433207131,-0.2747214944435492,0.7934437706897443
7.166894288003836,-2.7378517877345634,3.556165125378162,-1.9686685643965338,-13.660302846936421,3.919227592474371,-31.482580670842395,-5.177148873681478,-30.723085503740606,0.1738312841459055,0.5272144919014085,-0.28510180618662867,0.7813734857866929
6.198647288003836,-2.6701627877345637,2.885161125378162,-2.050697293911015,-13.363085492626553,3.859570493311953,-33.5590350684089,-3.2785287118754414,-27.877442014925634,0.164108470623495,0.5424274560124126,-0.2952394702378136,0.769203822174081
5.973998288003836,-2.440608787734564,1.602013125378162,-2.155095908448308,-12.923117658796066,3.7668900193725494,-34.67142135281952,-3.506363131292164,-25.78065207579882,0.15472562492009032,0.5567884253371325,-0.30515735050036263,0.7569185040935935
6.582218288003835,-1.9707097877345634,1.932610125378162,-2.2435160336835924,-12.558785413430005,3.675274196276863,-35.783807637230154,-3.7341975507088945,-23.683862136672005,0.1454906297887576,0.5706095688034154,-0.3148636832491872,0.7443776310478485
7.1325592880038355,-1.6597327877345636,1.4725211253781618,-2.3585681379750585,-12.046377688995493,3.5218719723313257,-35.783807637230154,-3.7341975507088945,-23.683862136672005,0.13732973289672396,0.5829791693335283,-0.32418990609134213,0.7322409011890767
7.951694288003835,-3.7629967877345636,0.1118741253781618,-2.4363347734561698,-11.633041834221189,3.368469748385788,-35.783807637230154,-3.7341975507088945,-23.683862136672005,0.1291065039753431,0.5950841638389649,-0.3333689837063544,0.7197718175102004
8.968010288003837,-4.572321787734563,-0.9319098746218382,-2.5524515285913525,-11.058847708936828,3.1191896073111938,-38.67601197669778,-2.443135840680784,-20.838218647857033,0.12226162616301872,0.6058898814506299,-0.34189668011024266,0.7078532379337615
10.586660288003838,-4.758711787734564,-0.9613398746218382,-2.6376759559662357,-10.602901385804332,2.892281096588663,-41.568216316165405,-1.1520741306526736,-17.99257515904206,0.11575880378867016,0.6161944245070395,-0.3501633286780739,0.6959094580482047
10.739696288003836,-5.094213787734564,-0.6827358746218384,-2.7218339871681505,-9.962657020307496,2.548189434557981,-42.53228442932129,-0.16479164651353717,-14.248307410601313,0.10992790940888279,0.6257855523172006,-0.35790939357406887,0.6842581115598787
10.212899288003838,-4.409475787734563,-0.5630538746218383,-2.7580530598055364,-9.469423483035394,2.2786704554772608,-43.49635254247717,0.8224908376256028,-10.504039662160565,0.10510360583184648,0.634474222738662,-0.36497420545656234,0.673193524978268
9.451643288003837,-4.1122327877345635,-1.2674118746218384,-2.7431392213472447,-8.780177253459566,1.931383095586177,-43.49635254247717,0.8224908376256028,-10.504039662160565,0.10028816036893644,0.642957917047676,-0.371916020813402,0.6619863104761714
7.640717288003835,-3.6285997877345637,-1.2536778746218382,-2.6813528204973935,-8.25818243544385,1.69169179342204,-43.49635254247717,0.8224908376256028,-10.504039662160565,0.09682584342696357,0.6500771894966954,-0.37788507041067265,0.6520945309550266
7.0079722880038355,-3.0586387877345635,-1.4596878746218382,-2.543929085853864,-7.542302481482588,1.405126183537091,-43.19971619996767,1.657883708820263,-8.856561852846639,0.09334453423774913,0.6570689502580085,-0.3837799984053618,0.6420748440476054
6.725444288003836,-3.407874787734564,-0.7170708746218382,-2.421419189668626,-7.002196381818926,1.2176341886416,-42.90307985745817,2.4932765800149195,-7.209084043532709,0.0905377768138264,0.6630957910566929,-0.38854010497274616,0.6333588790569501
6.816677288003836,-3.4843927877345635,-0.5159658746218383,-2.201968470839867,-6.258619797957766,0.984334282198266,-44.089625227496164,2.873000612376126,-5.786262299125227,0.08809918536750964,0.6685770438486608,-0.39266804191175825,0.6253439684184642
6.409562288003835,-3.9925507877345634,-0.44827687462183824,-2.010216127240258,-5.660987646148373,0.8181475214818699,-45.27617059753416,3.252724644737336,-4.363440554717741,0.08596225122011891,0.6735329465447852,-0.396416006734183,0.6179144041764953
6.5194342880038345,-4.020999787734564,-1.4783268746218383,-1.7683920327301832,-4.817272796454038,0.6114795940947174,-44.83121608376992,3.0248902253206094,-2.266650615590919,0.08468340586730146,0.6771976465464943,-0.39920758822470603,0.6122625007187825
6.821582288003835,-4.126947787734563,-2.6996718746218384,-1.6267079493825354,-4.133351566426043,0.46979551074706966,-44.386261570005665,2.797055805903886,-0.1698606764641024,0.08339991965963538,0.6808252344841348,-0.40197729217671807,0.6065770437996009
6.759779288003835,-4.007265787734563,-2.767360874621838,-1.4605229339953911,-3.1831070551777305,0.28549921371198045,-44.386261570005665,2.797055805903886,-0.1698606764641024,0.08333348179186767,0.6828341750333425,-0.40377947005253323,0.6031211816733639
6.505700288003835,-3.9876457877345635,-3.648298874621838,-1.3539915271121612,-2.44698651788109,0.1619246666830259,-44.386261570005665,2.797055805903886,-0.1698606764641024,0.08342508624751191,0.6846240685530097,-0.4054507606266312,0.5999498482788419
6.304595288003835,-3.9297667877345632,-3.3706758746218384,-1.2123074437645134,-1.4541297929453354,0.014913838458291546,-44.312102484378286,3.404614257681816,0.7287635831616761,0.08412401727157272,0.6854839075932933,-0.40671340037783416,0.5980126855693125
6.228077288003836,-3.6619537877345634,-2.7094818746218388,-1.1036484805231024,-0.7350541411236717,-0.06604849488322141,-44.237943398750915,4.012172709459749,1.6273878427874564,0.08542185848819273,0.6854343862171581,-0.4075774843901363,0.5972967457652346
6.122129288003835,-3.7767307877345635,-2.302366874621838,-0.9353306727900211,0.17896955215800267,-0.14487978120804929,-44.312102484378286,3.784338290043026,1.9269292626627177,0.08683319250615608,0.6851616545688756,-0.40834116917997393,0.5968844053419069
6.184913288003835,-4.217199787734564,-1.3733598746218383,-0.7925801932694048,0.8415838026776499,-0.18110059917468763,-44.386261570005665,3.556503870626303,2.2264706825379754,0.0890535512535046,0.6833090701605611,-0.4083955487495654,0.5986411741661196
6.773513288003835,-4.495803787734563,-0.9897888746218382,-0.6008278496697957,1.695952142126158,-0.22051711500172758,-44.386261570005665,3.556503870626303,2.2264706825379754,0.09127289022585812,0.6814486610052964,-0.40844525167726203,0.6003910877971169
7.042307288003835,-4.222104787734564,-1.0427628746218383,-0.47405760478043957,2.330869762745907,-0.258867234655799,-44.386261570005665,3.556503870626303,2.2264706825379754,0.09419803481726036,0.6782655556147539,-0.4080460762367732,0.6038054040590802
7.157084288003835,-4.007265787734563,-1.411618874621838,-0.3259803803827365,3.1948251957756204,-0.3014794483432405,-45.49864785441629,3.4046142576818164,1.4027317778810122,0.09736489212396449,0.6746021402108682,-0.4074782107808141,0.6077775398478228
7.065851288003835,-3.5324617877345634,-1.9717698746218382,-0.24928014107459365,3.848917003557779,-0.34728735989108367,-46.611034138826916,3.2527246447373366,0.5789928732240472,0.1010448141711138,0.6702206742215424,-0.4065343191344864,0.6126369567215202
7.3817332880038355,-3.6001507877345635,-1.9570548746218384,-0.16831606240382857,4.756551046447902,-0.4207919013388249,-46.017761453807914,3.93622790298751,0.5041075182552319,0.10562827749575449,0.6645675018340672,-0.40492387263480467,0.6190552155258363
7.745684288003836,-3.5187277877345635,-2.9871048746218385,-0.13103233892272562,5.448992973884132,-0.4879067923950148,-45.42448876878892,4.619731161237683,0.4292221632864184,0.11020152085377494,0.65885002983063,-0.40327424809913026,0.6254135782134685
8.095901288003835,-3.608979787734564,-3.3373218746218387,-0.09587617179980372,6.364084808668028,-0.6093502924072843,-45.42448876878892,4.619731161237683,0.4292221632864184,0.11615079620438265,0.6512075129041676,-0.40092287646117614,0.6337969823282164
8.493206288003837,-3.5226517877345636,-3.0734328746218385,-0.059657099162417314,7.03628615276888,-0.713748906944577,-45.42448876878892,4.619731161237683,0.4292221632864184,0.12210679333813762,0.6434183562897254,-0.3984904675563143,0.642112215330666
8.886587288003836,-3.2401237877345634,-3.068527874621838,-0.011718140597888962,7.888523445200703,-0.8596950843255949,-44.90537516939729,3.328669451209576,-0.5442874513081772,0.12880955359115442,0.634517365702965,-0.3956000093805388,0.651380414276585
8.675672288003836,-3.6904027877345635,-3.049888874621838,0.03622081796663936,8.47337106023924,-0.9608980010024861,-44.386261570005665,2.0376077411814695,-1.517797065902771,0.13599231479715373,0.6248001212060214,-0.3923567009011527,0.6612012689907789
8.924846288003836,-3.5569867877345636,-2.9733708746218386,0.11824780215186895,9.183924269323414,-1.0908639437522438,-44.83121608376992,2.6451661929593993,-2.790848100372628,0.14333506304293386,0.6146727638899946,-0.3888186557493161,0.6711575865440309
9.149495288003838,-3.3029077877345636,-2.3210058746218385,0.19388339061629528,9.659048270276822,-1.1707616262500404,-45.27617059753416,3.252724644737336,-4.0638991348424796,0.1513245781443766,0.6034688617540799,-0.3844717695075344,0.6819880229112586
9.408479288003837,-3.048828787734564,-3.040078874621838,0.3313071252598249,10.237502744265303,-1.2645067510331598,-45.12785242627942,2.873000612376126,-6.3104597839069285,0.15926482899272726,0.5920684981900003,-0.3799997171176484,0.6925964356589359
10.658273288003837,-3.068448787734564,-1.861897874621838,0.43677213597008624,10.612488479385537,-1.3209681523351764,-44.97953425502467,2.4932765800149195,-8.557020432971377,0.16755629364658317,0.579682258223386,-0.3746761607905222,0.7039255234012548
10.558211288003836,-3.196959787734564,-1.0329528746218382,0.5955011047927106,11.051391662372305,-1.3923433920954844,-44.97953425502467,2.4932765800149195,-8.557020432971377,0.17586050628656974,0.5669213296041139,-0.36906921399824544,0.715165158300691
10.485617288003837,-3.254838787734564,-0.29033587462183824,0.7361205372966417,11.327303782503083,-1.4498694442412174,-44.97953425502467,2.4932765800149195,-8.557020432971377,0.1842826006102744,0.5535850745127224,-0.36299458265672024,0.7265111295437472
11.051654288003837,-3.0105697877345645,0.5189891253781618,0.8991098548233843,11.657544511589936,-1.5191136369848404,-44.83121608376992,2.4932765800149195,-10.429154307191752,0.19284542931742785,0.5395925424660902,-0.356381627085446,0.7379990951093963
11.166431288003837,-3.005664787734564,0.3463331253781618,0.9928567249357557,11.889779767189555,-1.569181897236802,-44.682897912515166,2.4932765800149195,-12.301288181412126,0.20136589658571324,0.5253024373864019,-0.3495719972839321,0.74920527472987
11.199785288003838,-2.8241797877345642,0.12168412537816181,1.0652966155397805,12.191257470203544,-1.6437528348575114,-43.12555711434029,2.2654421605981927,-14.472963475507761,0.21030440641610856,0.510083722654437,-0.3421461589995793,0.7606067698928236
11.252759288003837,-2.186529787734564,-0.23736187462183816,1.0599698706626939,12.436275517244768,-1.7161927254615363,-41.568216316165405,2.037607741181469,-16.644638769603393,0.21913846995059164,0.4946116782070169,-0.3345503960827516,0.7716305147217977
11.339087288003837,-1.865742787734564,0.3512381253781618,0.9779428864774642,12.786758574996252,-1.8291155280655693,-41.568216316165405,2.037607741181469,-16.644638769603393,0.22867053141560806,0.47819922377233065,-0.32648871530761336,0.782585720047605
11.578451288003837,-1.4488177877345638,1.276321125378162,0.8831313655213763,13.06586639298743,-1.9345787934465786,-41.568216316165405,2.037607741181469,-16.644638769603393,0.23842548191843216,0.461219205814881,-0.31811528923467997,0.7932419533248288
11.520572288003837,-1.578309787734564,2.022862125378162,0.7574257714757369,13.466419456320128,-2.109287996900463,-41.12326180240116,2.1135525476537125,-18.591657998792584,0.24848756276787431,0.4436493086234202,-0.3094746816537169,0.80352638010396
11.400890288003838,-1.578309787734564,2.569279125378162,0.6690056462404521,13.781746346948692,-2.2722790597564577,-40.67830728863691,2.1894973541259524,-20.538677227981772,0.2593506638876739,0.42509761145337155,-0.3004560740992556,0.8134834979362051
11.329277288003837,-1.4635327877345639,2.588899125378162,0.5464974953844662,14.23769441541044,-2.5172971067976815,-38.75017106232516,0.8224908376256023,-24.58248639629778,0.27004709280755823,0.40627272449071644,-0.29124437787443014,0.8229178290434671
11.262569288003837,-1.563594787734564,1.941439125378162,0.4410324846742049,14.599893868430561,-2.722898638011866,-36.8220348360134,-0.5445156788747479,-28.626295564613784,0.28176524161118793,0.3859034921796237,-0.2813275335268684,0.8321908808819339
10.816214288003836,-1.573404787734564,1.678531125378162,0.2705853752536907,15.127215431323364,-3.012659945757216,-36.8220348360134,-0.5445156788747479,-28.626295564613784,0.29335653935188105,0.3651610363937226,-0.2711671279246122,0.8408732050984072
10.510142288003838,-1.6116637877345639,2.0954561253781616,0.1342280367831298,15.526703843812347,-3.2385020603067787,-36.8220348360134,-0.5445156788747479,-28.626295564613784,0.30578371501027557,0.3430485632531613,-0.26063127539643016,0.8490496694361803
9.810689288003838,-1.6450177877345638,2.473141125378162,-0.03408977094995128,16.061481453269668,-3.5303944150688142,-34.96805769532902,-1.0761293241804382,-29.674690534177202,0.3187928873702439,0.31976362472939734,-0.24973350466440636,0.8565952929535008
8.406878288003837,-1.3438507877345638,2.981299125378162,-0.14487978120804726,16.447118932814824,-3.7253442018580762,-33.114080554644644,-1.6077429694861283,-30.723085503740606,0.33167584097151637,0.2960118948024401,-0.23853074774295727,0.8634067274653889
7.367999288003836,-0.8788567877345635,3.858313125378162,-0.2535404897787102,16.936090376053556,-3.9533173634243237,-30.07355804392227,-2.0634118083195823,-33.34407292764913,0.3449868853807147,0.271118043561904,-0.22671033037935107,0.8695294598055691
6.356588288003836,-0.6443977877345634,4.303687125378162,-0.30041305217026987,17.269528548330065,-4.0875436548782,-27.03303553319989,-2.519080647153022,-35.96506035155765,0.3579618788063065,0.24596009681781864,-0.21466907497016624,0.8748051853677378
5.628686288003836,-0.6581317877345633,4.609759125378162,-0.33024247441610494,17.67114626250648,-4.227098436538414,-22.880126738066885,-3.2025839054032064,-38.13673564565329,0.3710850253008038,0.21971388687709154,-0.20221444738577823,0.879278698240397
5.188217288003836,-0.8121487877345633,4.6578281253781615,-0.34622096371811295,17.93853593989977,-4.306996119036211,-18.72721794293388,-3.8860871636533765,-40.308410939748924,0.3839493308414614,0.1930182208647354,-0.18949568562016345,0.8828466814186656
4.814456288003836,-1.2673327877345633,4.7392511253781615,-0.3888331774055545,18.236817945053357,-4.383696358344354,-18.72721794293388,-3.8860871636533765,-40.308410939748924,0.39664022001809296,0.16572412213728852,-0.17662754767007804,0.8854460800127124
4.306298288003836,-1.956975787734563,4.581310125378161,-0.43783678681379923,18.409397846819804,-4.416721478450591,-18.72721794293388,-3.8860871636533765,-40.308410939748924,0.4092231793473131,0.13768771469945135,-0.16363680583970006,0.8870183078608356
3.928613288003836,-2.311116787734563,4.485172125378162,-0.5283879590657691,18.54788623230705,-4.42843961904848,-15.612536346584125,-3.0506942924587133,-40.832608424530626,0.4213361800157808,0.10950920132629335,-0.15046234668518477,0.8876061291274271
3.0663142880038357,-2.3739007877345633,5.357281125378162,-0.595501104792707,18.565995768625747,-4.4050033378527,-12.49785475023437,-2.2153014212640643,-41.35680590931233,0.4325893868750503,0.08154904437022453,-0.13708785064597076,0.8873686364361991
3.109478288003836,-2.8281037877345634,5.807560125378162,-0.6466357612176369,18.491424831005038,-4.335759145109078,-8.122468698219238,-3.050694292458714,-42.1805448139693,0.44337222260090564,0.05350021599133978,-0.12356429369670656,0.8861662735841662
2.529707288003836,-3.7531867877345633,5.927242125378162,-0.6583539018155269,18.331631211338696,-4.250534717734194,-3.74708264620411,-3.8860871636533783,-43.00428371862626,0.45324919691248733,0.026205555337990766,-0.11012304188347659,0.8841670373939209
1.5379162880038353,-3.5089177877345628,6.611980125378161,-0.6114795940947152,17.96729722064338,-4.102459238665743,-3.74708264620411,-3.8860871636533783,-43.00428371862626,0.4624416086150736,-0.0006825326167604977,-0.09668582289865506,0.8813620960882881
1.3799752880038354,-4.380045787734563,8.269870125378162,-0.5401060996636591,17.56887694965662,-3.9501216655639224,-3.74708264620411,-3.8860871636533783,-43.00428371862626,0.4708991532511091,-0.0268117051204801,-0.0833257238753287,0.8778336651533558
0.14882028800383523,-4.648839787734563,7.934368125378162,-0.38563747954515304,16.855128042712042,-3.713626061260187,0.8507806626931464,-3.430418324819925,-42.77962765371982,0.4782057275845588,-0.050883519936351436,-0.07035707018546022,0.8739450967761807
-0.37307171199616473,-4.404570787734563,9.175333125378163,-0.20240583335378043,16.178664604577822,-3.499500341979262,5.448643971590403,-2.9747494859864796,-42.55497158881337,0.4851220165899049,-0.07491380640965409,-0.05733099490768968,0.8693432622686252
-1.0244557119961648,-4.692003787734563,9.399982125378163,0.15020652608513785,15.10591019714427,-3.195891591948589,9.230757338586535,-1.2280189371249233,-42.330315523906926,0.4906416434528792,-0.09486879291485018,-0.045190085682680334,0.8650020497066636
-1.657200711996165,-4.6586497877345625,9.514759125378163,0.47405760478044157,14.172710571370935,-2.9519381957510813,13.012870705582664,0.5187116117366328,-42.10565945900048,0.49575224064333495,-0.11427667651952342,-0.03313689022909955,0.8602746675374733
-1.8867547119961647,-3.4559437877345625,9.343084125378164,0.9395927668233929,12.779302528431733,-2.5961283931225094,13.012870705582664,0.5187116117366328,-42.10565945900048,0.5000106354037129,-0.1308373084999176,-0.021636479077547403,0.8558053668684251
-2.8304767119961647,-2.895792787734562,9.050746125378163,1.3028586160164846,11.643695323975361,-2.3031713875167568,13.012870705582664,0.5187116117366328,-42.10565945900048,0.5035239981639339,-0.1446755779433884,-0.010675994253627676,0.8517150835616626
-2.878545711996165,-3.106707787734562,9.232231125378162,1.7758498246239558,10.03935900494489,-1.8887708818987354,15.53427961691342,0.44276680526438905,-40.832608424530626,0.506722404386871,-0.15770985523986736,8.801354425013927e-05,0.8475612064660727
-2.8834507119961645,-1.6646377877345624,9.750199125378163,2.0890474135650856,8.797222138934542,-1.5723775950972034,18.055688528244172,0.3668219987921453,-39.559557390060775,0.5088353131358183,-0.1656358476582443,0.009507788384610158,0.8447253944546371
-3.3190147119961644,-0.8739517877345622,10.338799125378163,2.4597710546519496,7.118314882283361,-1.1260183655459135,20.873733782084425,0.21493238584766516,-38.810703840372625,0.510864742502202,-0.17353466590467215,0.018926003379803436,0.8417509970255935
-4.382418711996165,-0.5580697877345621,10.122979125378164,2.6675036328828186,5.878309063289698,-0.7744706569507118,23.69177903592468,0.06304277290317793,-38.061850290684475,0.5118379384376328,-0.17773184849617527,0.026613970415953227,0.840074408242952
-4.698300711996165,-0.586518787734562,8.063860125378161,2.7964049247888587,4.310191816896612,-0.25780258381208243,25.91655160474593,-0.16479164651354555,-37.013455321121064,0.5124471724688281,-0.18068431243296687,0.0337209270286998,0.8388170085004565
-4.1381497119961645,0.16983221226543802,7.939273125378162,2.7580530598055355,3.221457174831801,0.12783489573307266,28.141324173567188,-0.39262606593026905,-35.96506035155765,0.5125215850154702,-0.18235520445416253,0.03980856874060761,0.8381428769347954
-3.1424347119961644,-0.28535178773456216,8.025601125378161,2.5204928046580837,1.9100778614070821,0.6349176206197492,28.141324173567188,-0.39262606593026905,-35.96506035155765,0.5117154020172002,-0.18184051001304755,0.044149827546832054,0.8385297663077651
-2.940348711996164,-1.0564177877345622,8.063860125378161,2.227535799052331,1.0397292873273138,0.9800739334941478,28.141324173567188,-0.39262606593026905,-35.96506035155765,0.5108990302265407,-0.1813221949359358,0.04849020728350892,0.8388999596702801
-3.3239197119961643,-1.1996437877345623,9.347008125378164,1.7524135434281747,-0.015980234631260297,1.3944744391121693,27.622210574175565,-0.7723500982914719,-34.91666538199425,0.5087605085765387,-0.1786298809292229,0.05007718010849138,0.8406820960294891
-3.855621711996164,-1.6793527877345622,10.262281125378163,1.3934080429392008,-0.7158799539612624,1.6661244652095748,27.103096974783927,-1.152074130652682,-33.86827041243083,0.5065965161953251,-0.1759071688381199,0.051628726759811,0.8424672766958238
-3.764388711996165,-1.842198787734562,10.348609125378163,0.9438531155275093,-1.553203407934794,1.982517752011107,27.77052874543031,-2.5190806471530287,-34.6920093170878,0.5038059597264888,-0.17207488205687416,0.05161817064882854,0.8449292008020867
-4.660041711996165,-1.372299787734562,10.070986125378163,0.6295908757426623,-2.1082233460567465,2.1817278875044877,28.437960516076682,-3.8860871636533822,-35.515748221744765,0.5005973784642407,-0.16751992341736205,0.05059479838371547,0.8478086495840218
-5.590029711996165,-1.3055917877345617,9.256756125378162,0.21625502096835705,-2.7804246901575986,2.402245002506215,28.437960516076682,-3.8860871636533822,-35.515748221744765,0.4972883159308173,-0.16277215116254687,0.04906330851687171,0.8507657429645291
-7.347981711996164,0.26106521226543833,9.519664125378162,-0.08309338035819844,-3.2395684564797467,2.5492558307309494,28.437960516076682,-3.8860871636533822,-35.515748221744765,0.4936776919163217,-0.1573794584672249,0.04579902634436578,0.854058833888301
-7.9797457119961654,-0.9269257877345616,9.045841125378162,-0.4431635316908887,-3.8084358368870226,2.7271607320452356,28.141324173567188,-2.898804679514239,-35.44086286677595,0.49003566124958403,-0.15197675364860241,0.04253183054194105,0.8572975915310078
-7.6923127119961645,-0.5678797877345616,9.381343125378162,-0.6711366932571361,-4.198335410465548,2.820905856828355,27.84468783105768,-1.9115221953750952,-35.36597751180713,0.4860181015501118,-0.14546882661815536,0.0379497966767571,0.8609210407349535
-7.434309711996165,-1.0564177877345617,8.954608125378163,-0.8991098548233835,-4.680915457983477,2.8848250500241432,27.177256060411306,-3.354473518347692,-35.89017499658884,0.4818910877915915,-0.13874701123552632,0.03312465593096603,0.8645420773737393
-7.338171711996164,-1.4301787877345618,8.116834125378162,-1.0269464958857082,-5.0132872340870165,2.8848250500241432,26.509824289764932,-4.797424841320275,-36.41437248137055,0.4778223738457418,-0.13138670762554472,0.027802013655371965,0.8681303819982609
-7.084092711996165,-1.4007487877345617,8.939893125378163,-1.1089734800709377,-5.436210182442526,2.8155791119512683,26.509824289764932,-4.797424841320275,-36.41437248137055,0.47381770822931146,-0.12329174043666827,0.021907429400911217,0.8716742457165201
-7.251843711996164,-1.1378407877345618,9.089005125378163,-1.1132355741043078,-5.734493932925365,2.7324874769223224,26.509824289764932,-4.797424841320275,-36.41437248137055,0.4697864363980897,-0.11507516987391973,0.01599079794254339,0.8751015391576187
-7.190040711996165,-0.8602177877345618,9.797287125378162,-1.0407956835002832,-6.122262459487206,2.5790835076475327,25.47159709098168,-4.949314454264762,-37.08834067608988,0.4660632011797124,-0.10569513492123012,0.00986330115248024,0.8783600322478691
-6.409164711996165,0.4621702122654382,9.845356125378162,-0.9214814851754469,-6.4120220219033035,2.443790820020688,24.43336989219843,-5.101204067209248,-37.762308870809214,0.4622700511072922,-0.09629924447960182,0.003734324753517047,0.881486761205496
-6.025593711996164,0.7064392122654383,9.122359125378162,-0.7062911150508061,-6.765700777515191,2.241384986666906,22.950188179650926,-5.784707325459418,-38.2116210006221,0.459014006418631,-0.08585065870736715,-0.0024236897587349483,0.8842680204773786
-4.962189711996165,0.7496032122654381,9.778648125378163,-0.5294526099094887,-7.018176616450186,2.065611132369305,21.467006467103428,-6.468210583709587,-38.660933130435,0.45593552990357955,-0.07495040904121207,-0.008593271946451346,0.8868096664072579
-3.888975711996164,0.7162492122654379,10.875406125378163,-0.28549921371198134,-7.3271121113579465,1.8110042464176241,20.057983840183294,-6.468210583709587,-39.33490132515433,0.4531266261821488,-0.06362427136018557,-0.01470422774801465,0.8890511787433856
-2.4233617119961637,0.38074721226543784,10.281901125378164,-0.11398745344775059,-7.541237830638871,1.5915535275888653,18.648961213263174,-6.468210583709587,-40.00886951987366,0.45096343224329516,-0.05142111124917835,-0.020692703165805983,0.8908196585914228
-1.5129937119961643,-0.22747278773456237,10.779268125378163,0.0862890782185987,-7.816083554596678,1.2804869856644199,18.648961213263174,-6.468210583709587,-40.00886951987366,0.44871338911341,-0.039208048158029925,-0.026677193461075846,0.8924165791484578
-1.2020167119961642,-0.8209777877345625,11.651377125378163,0.20560153121418304,-8.013164388402625,1.0503827770814873,18.648961213263174,-6.468210583709587,-40.00886951987366,0.44717504413027714,-0.02599201336682645,-0.03245428204793253,0.8934794987715033
-1.2304657119961644,-1.2379027877345623,12.332191125378163,0.3440916620306811,-8.274160924745857,0.767014610386192,16.794984072578796,-6.6201001966540804,-40.45818164968655,0.4455905638282183,-0.012709644811591845,-0.038212121979485474,0.8943306704401
-1.3167937119961644,-1.0799617877345624,12.274312125378161,0.4122694586013355,-8.46058826879763,0.5805872663344177,14.941006931894417,-6.77198980959856,-40.90749377949945,0.44423840376882734,0.0010597251707189716,-0.044124892291136315,0.8948207147131668
-1.7386237119961643,-0.2755417877345623,11.953525125378162,0.43357643810968227,-8.724782248330518,0.38670213038887163,13.680302476229041,-6.24037616429287,-42.62985694378219,0.44303819096805125,0.015206605388359226,-0.05015459266511337,0.8949695175428692
-2.217351711996164,0.7446982122654379,11.833843125378163,0.3909642244222407,-8.92825447785727,0.29721735430987034,12.419598020563662,-5.708762518987173,-44.35222010806493,0.44173134210656445,0.029498829767393098,-0.056437765566757114,0.8948843607198194
-2.275230711996164,0.8889052122654377,11.699446125378161,0.2546051406224277,-9.22440543599417,0.2514094427620272,12.419598020563662,-5.708762518987173,-44.35222010806493,0.44030248749428724,0.04445663794614739,-0.06390592231782141,0.8944681995138658
-1.9014697119961645,0.7113442122654378,11.594479125378163,0.10120291667689003,-9.465163134331275,0.2631275833599171,12.419598020563662,-5.708762518987173,-44.35222010806493,0.4387495890131349,0.059401921613856074,-0.07135607522363499,0.8938000449642336
-1.3069837119961643,0.17964221226543764,11.440462125378163,-0.15659792180594043,-9.80818840018899,0.314262239784847,10.491461794251911,-6.847934616070796,-44.127564043158486,0.4368138956615088,0.07507999004680851,-0.07993247590771702,0.892842323675827
-0.7998067119961643,-0.5247157877345625,10.903855125378163,-0.35900550048897484,-10.09049191604057,0.369657244913895,8.563325567940156,-7.987106713154419,-43.90290797825204,0.43466952347406806,0.09092007662600239,-0.08876823477302855,0.8915807005114172
-0.05718971199616425,-0.5384497877345625,12.144820125378162,-0.6231994800218605,-10.493176026389952,0.45914376632214826,7.005984769765283,-7.303603454904249,-45.02618830278426,0.43223724808885533,0.10709902504069153,-0.09822683617319007,0.8899731731099044
-0.7232887119961645,-1.7362507877345628,10.478101125378164,-0.7915155424256897,-10.804242568314399,0.533712958613606,5.4486439715904025,-6.62010019665408,-46.14946862731649,0.42944505133466426,0.12374774627524371,-0.10855006556900593,0.8879641470470138
-1.2402757119961645,-2.416083787734563,8.954608125378163,-0.977942886477464,-11.228230167513624,0.6349176206197492,5.4486439715904025,-6.62010019665408,-46.14946862731649,0.4264767166428331,0.14037783728387,-0.11886729114854472,0.8855971093313593
-1.1107837119961645,-2.6515237877345625,7.273174125378161,-1.1185623189813951,-11.544623454315158,0.7222713496820654,5.4486439715904025,-6.62010019665408,-46.14946862731649,0.4231755144753921,0.15769238837365335,-0.1300402988562776,0.8826919707751228
-0.3299077119961645,-1.9618807877345628,6.195055125378161,-1.2751602407873346,-11.964350704810265,0.8234742663589566,2.2598032896132727,-7.151713841959769,-46.14946862731649,0.41968643611306783,0.17493692916067508,-0.1411555728915864,0.8793949456303425
-0.5310127119961644,-2.0138737877345627,5.9419571253781625,-1.3358819907934694,-12.25198096553893,0.8810003185046897,-0.9290373923638571,-7.6833274872654584,-46.14946862731649,0.4155663909641631,0.19313319596513334,-0.15233000104526398,0.8756710079127112
-0.8047117119961644,-1.8843817877345626,4.2840671253781615,-1.3422733865142726,-12.628029606173628,0.9300039279129345,-3.0054917899303595,-7.6833274872654584,-45.325729722659524,0.4110085374539924,0.21176681717672308,-0.1634915557863783,0.8714914276510818
-0.028740711996164445,-1.9854247877345625,3.5414501253781623,-1.3039232668602012,-12.89328823655023,0.9608980010024861,-5.081946187496862,-7.683327487265458,-44.50199081800256,0.4061365588090948,0.23072122316427743,-0.17465969085862343,0.8667841745033515
1.3270012880038355,-1.593024787734563,2.635987125378162,-1.2080470950603965,-13.2459023413184,0.9577023031420845,-7.455036927572865,-7.987106713154417,-43.828022623283225,0.4007668981413185,0.2506611725349206,-0.18596421080095277,0.861378071603163
3.526403288003836,-1.314420787734563,1.1134751253781618,-1.103648480523104,-13.499442831097113,0.9246771830358478,-9.82812766764887,-8.29088593904339,-43.15405442856389,0.39516340884204054,0.27045487290342246,-0.19716022937472713,0.8554693951206187
5.724824288003836,-1.1084107877345633,0.49054012537816183,-0.9363953236337393,-13.810509373021558,0.8277363603923268,-9.82812766764887,-8.29088593904339,-43.15405442856389,0.3894521811401353,0.290939918768461,-0.2080273000195204,0.8487671086456999
8.536370288003837,-1.5400507877345637,-1.0280478746218382,-0.79151554242569,-14.029960091850317,0.7244023966987505,-9.82812766764887,-8.29088593904339,-43.15405442856389,0.3835146610483619,0.3113426449905838,-0.2187414601710541,0.8415072404759586
11.089913288003837,-1.769604787734564,-1.4165238746218383,-0.6040235475301993,-14.296285118399888,0.5283879590657713,-13.758559205899747,-6.620100196654077,-42.704742298751,0.377611765493722,0.3320046099305445,-0.22903253197159135,0.8335024852058113
13.906364288003838,-1.9089067877345642,-1.1241858746218383,-0.4580773701491815,-14.459274435926632,0.35261410476817034,-17.68899074415063,-4.949314454264757,-42.25543016893811,0.3717224420519238,0.35287756138837756,-0.23890817438167772,0.8247561681837609
14.984483288003837,-2.1678907877345646,-1.2536778746218382,-0.23329990644333584,-14.643572478290972,0.09161582309568635,-19.91376331297188,-5.708762518987169,-41.13214984440589,0.36561671848425514,0.37366235388690433,-0.24853730703079552,0.8154324420001838
15.516185288003838,-2.2247887877345645,-0.060781874621838206,-0.052199307268648215,-14.753297837705352,-0.10226931284985974,-22.138535881793132,-6.468210583709582,-40.00886951987366,0.35941522884783395,0.39508381456512676,-0.25741298374078236,0.8052751259927228
15.228752288003836,-1.6930867877345643,0.5572481253781618,0.21732141714132408,-14.872610290700935,-0.31852433381821715,-22.138535881793132,-6.468210583709582,-40.00886951987366,0.3529695934219009,0.41623690027732557,-0.2661138033743245,0.7945707977397316
14.280125288003836,-0.7787947877345645,1.3283141253781618,0.42931434407631136,-14.935463087723756,-0.4452945787075733,-22.138535881793132,-6.468210583709582,-40.00886951987366,0.34609223330258354,0.4375059371099795,-0.27412247052289984,0.78336810772176
13.470800288003838,-0.2990857877345642,1.731505125378162,0.6988350684862836,-14.986597744148686,-0.5326483077698895,-24.956581135633385,-6.088486551348379,-38.28650635559092,0.33891349445426305,0.45860177840918176,-0.2817759803326766,0.7716374466187441
12.344612288003837,-0.12250578773456404,2.2151381253781617,0.8916538082588612,-14.990858092852804,-0.5486285424011496,-27.77462638947364,-5.708762518987168,-36.564143191308176,0.33131184246851797,0.47937403165241216,-0.2890048310768553,0.7595453958991962
11.553926288003838,-0.29908578773456396,2.238682125378162,1.1057777822105337,-14.942920879617526,-0.5092120265741096,-29.999398958294893,-5.025259260736998,-34.018041122368466,0.32316955194851926,0.49980863385811614,-0.29565301948847816,0.7472228999981348
10.769126288003838,-0.983823787734564,1.5107801253781619,1.227221282222803,-14.85982749925933,-0.4442281825346047,-32.22417152711615,-4.341756002486829,-31.471939053428756,0.31480753451504273,0.5199034100876877,-0.3021001898121005,0.7343923581487263
11.041844288003837,-1.0132537877345638,2.1003611253781616,1.3113810587539696,-14.67126910819087,-0.32172003167861873,-32.22417152711615,-4.341756002486829,-31.471939053428756,0.30607897183131616,0.5389025002535466,-0.3081754705763548,0.7217531694133411
9.978440288003837,-2.407254787734564,1.759954125378162,1.3518622254247261,-14.478450368418292,-0.21945071882875902,-32.22417152711615,-4.341756002486829,-31.471939053428756,0.2971555297703279,0.5575556096717299,-0.31405446020078415,0.7086607998743092
9.709646288003837,-2.224788787734564,0.5572481253781618,1.3880812980621124,-14.13862080042098,-0.0767019846373948,-33.410716897154145,-5.0252592607369975,-28.476524854676157,0.2882449198847596,0.5751401197141828,-0.31950260388244256,0.6957347159428826
9.499712288003836,-2.028588787734564,0.8593961253781619,1.3944744391121675,-13.830749956356936,0.02024058333537824,-34.59726226719215,-5.708762518987167,-25.48111065592356,0.2792964226692291,0.5919453563060713,-0.32462216176317626,0.6827991326327622
9.920561288003837,-1.6165687877345638,-1.3203858746218382,1.3752985066205061,-13.344974210978606,0.14594617738101784,-36.00628489411228,-5.556872906042687,-22.635467167108587,0.27031081327673157,0.608062383970543,-0.32945122957210404,0.6698164590088549
12.158222288003836,-0.629682787734564,-0.5493198746218382,1.3422733865142695,-12.934835799393955,0.22051711500172758,-37.4153075210324,-5.404983293098208,-19.789823678293622,0.2615807917170631,0.6226942301515146,-0.33375437830316557,0.6575982056728521
12.632045288003837,-0.4952857877345641,-0.40511287462183826,1.303923266860198,-12.302049225790892,0.2801724688348938,-39.862557346735784,-6.088486551348377,-16.71952412457221,0.2527309381649424,0.6370408157451253,-0.3379046318163513,0.6450787019938806
13.522793288003838,-0.7689847877345644,-2.2111338746218383,1.2602464023290403,-11.767269871004316,0.29721735430987034,-42.309807172439164,-6.771989809598553,-13.649224570850798,0.24468251019607207,0.6495481215410478,-0.3413986513565317,0.6337702011443792
14.150633288003837,-1.2859717877345642,-1.7078808746218384,1.154781391618779,-10.987472469176518,0.27804316714746063,-42.309807172439164,-6.771989809598553,-13.649224570850798,0.23670671369088314,0.6615568259169843,-0.34468475772249824,0.6224989281678245
14.366453288003838,-1.6067587877345644,-3.2215638746218382,1.057840568975258,-10.372795431892149,0.23649560430373565,-42.309807172439164,-6.771989809598553,-13.649224570850798,0.22936266060399707,0.6725128259019509,-0.34791340387300257,0.6116171452171115
13.595387288003838,-1.352679787734564,-2.5270158746218385,0.9278728808962482,-9.533342676231182,0.1672514115601126,-42.90307985745817,-6.69604500312631,-11.252893211848715,0.22275414230764767,0.6823555749850241,-0.3511133194773825,0.6012411315414268
12.866504288003837,-0.9798997877345641,-2.6996718746218384,0.8714132249234837,-8.917600988103095,0.12463919787267105,-43.49635254247717,-6.620100196654073,-8.856561852846639,0.21616463528115057,0.6918846813486479,-0.3541543821461666,0.5908833317800682
11.592185288003838,-0.658131787734564,-2.5230918746218385,0.8671511308901138,-8.165501961504447,0.09268047393940289,-43.86714797061404,-6.771989809598553,-6.834657268688634,0.2102957594974649,0.6998890079581691,-0.35643663430792855,0.5821374372087323
11.286113288003836,-0.1646887877345639,-2.3357208746218383,0.8980452039796655,-7.665877028511542,0.09694256797277305,-44.237943398750915,-6.923879422543033,-4.812752684530629,0.2043889858324827,0.7077672059638843,-0.35865465220608295,0.5732866343142666
11.343992288003838,-0.23728278773456393,-2.307271874621838,0.9928567249357534,-7.092747554070896,0.12677024488935612,-44.237943398750915,-6.923879422543033,-4.812752684530629,0.19869025010786337,0.714845340221694,-0.3603363026763648,0.5653990387760958
11.789366288003835,-0.7640797877345641,-1.9815798746218385,1.0802104539980697,-6.716697168106945,0.16405571369971098,-44.237943398750915,-6.923879422543033,-4.812752684530629,0.19306327628781025,0.7215475058535925,-0.36177423759451915,0.5578666230904853
12.047369288003837,-1.4252737877345643,-2.2925568746218383,1.2048513971999928,-6.290578521891034,0.2173214171413259,-44.089625227496164,-6.8479346160707895,-2.4913066804973667,0.18744566092037526,0.7278340774416914,-0.36299145951156564,0.5507802467757803
12.047369288003837,-1.7990347877345643,-2.800714874621838,1.2719645429269308,-5.984838724843676,0.2514094427620272,-43.94130705624141,-6.771989809598553,-0.1698606764641024,0.18187934635997516,0.7333923867033518,-0.3638186297742924,0.5446939646465586
11.965946288003837,-1.8176737877345643,-3.4089348746218384,1.3145767566143722,-5.585352057683946,0.3068061932203272,-44.757056998142545,-6.468210583709579,0.8785342930993068,0.17629491557988658,0.7388776459026417,-0.36460956162756963,0.5385534278934664
11.444054288003837,-1.721535787734564,-3.973990874621838,1.3028586160164826,-5.270023421726131,0.341960615013997,-45.57280694004366,-6.16443135782062,1.9269292626627177,0.17137815210176713,0.7434126912519017,-0.3654787014306312,0.533284556562787
10.888808288003837,-1.257522787734564,-3.988705874621838,1.2485282617311508,-4.824728843018557,0.3962909692993285,-45.57280694004366,-6.16443135782062,1.9269292626627177,0.1664859137792151,0.7478464104665072,-0.3663274653818705,0.5280268695552859
9.983345288003836,-0.9318307877345637,-3.7150068746218383,1.1931332566021033,-4.471051832735921,0.45062132358465995,-45.57280694004366,-6.16443135782062,1.9269292626627177,0.16190934861276096,0.751613866970152,-0.36714615811277534,0.5235128044212438
9.182849288003837,-0.7444597877345637,-3.3029868746218387,1.1164312719647083,-3.985276087357592,0.5294526099094878,-45.42448876878892,-6.54415539018183,3.1250949421637557,0.15757350958760294,0.7548772172671394,-0.3679431827452247,0.5195659632795246
8.464757288003836,-0.42857778773456356,-3.3226068746218385,1.048251730064802,-3.60603000353324,0.5976321518093943,-45.27617059753416,-6.923879422543033,4.3232606216647955,0.15338689971887018,0.7579131611869125,-0.3687418843163257,0.5158192724638544
8.042927288003836,-0.5914237877345636,-2.905681874621838,0.9640936988628874,-3.111731815417422,0.6892479749050807,-44.757056998142545,-6.01254174487614,6.19539449588517,0.14987293894719303,0.7600874538153247,-0.3696082075165308,0.5130252797477773
7.9664092880038355,-0.9416407877345635,-2.1110718746218384,0.8948495061192643,-2.747401315380614,0.7467722817215618,-44.237943398750915,-5.10120406720924,8.067528370105544,0.14635513657539695,0.7622422635933499,-0.37046505677873964,0.5102181369728134
8.177324288003836,-1.3193257877345634,-1.7991138746218382,0.8053647300402632,-2.263756617018969,0.8096250787443816,-44.460420655633044,-5.78470732545941,7.842872305199099,0.14354065730781762,0.7634648196048753,-0.37137934534482586,0.5085223011595301
8.345075288003837,-1.6018537877345638,-1.6794318746218382,0.7212066988383486,-1.8972933246362238,0.8341277561131301,-44.682897912515166,-6.468210583709579,7.618216240292654,0.14089367132926056,0.7644594710003986,-0.3723050796948465,0.507089359196747
8.378429288003836,-1.750965787734564,-2.0679078746218384,0.5784562193177324,-1.3806252514975945,0.8351924069568466,-44.682897912515166,-6.468210583709579,7.618216240292654,0.13891572533415114,0.7649585670631552,-0.37323955108998064,0.5061946754300374
8.637413288003836,-1.6165687877345638,-2.742835874621838,0.4314453910929981,-0.9513109074212813,0.820278568498555,-44.682897912515166,-6.468210583709579,7.618216240292654,0.1378399362100873,0.764798171821436,-0.3741895227833304,0.5060297515002179
8.660957288003837,-1.2477127877345637,-2.862517874621838,0.18216525001840414,-0.32172003167861873,0.7595568184924202,-44.534579741260416,-6.088486551348376,8.591725854887247,0.13685245455448786,0.764577487570663,-0.3751345602348986,0.5059315496190312
8.718836288003837,-1.0652467877345637,-3.1116918746218385,-0.026631979056181452,0.2024058333537824,0.697768672313317,-44.386261570005665,-5.708762518987166,9.565235469481843,0.1377208139080198,0.7631245486645802,-0.37599135069033307,0.5072518160125724
8.531465288003837,-1.2859717877345636,-3.2127348746218383,-0.33130712525982353,0.9694204437399745,0.5955011047927092,-44.460420655633044,-5.404983293098207,9.490350114513028,0.13858843751941022,0.7616675329390835,-0.37684613249745064,0.5085693725285992
8.780639288003837,-1.2428077877345638,-2.8340688746218383,-0.565673427876126,1.5947492254492668,0.5049499325407395,-44.534579741260416,-5.10120406720924,9.415464759544212,0.1409956483155638,0.7590222395521564,-0.37757455162042863,0.5113148980715652
8.483396288003837,-1.1515747877345637,-3.2411838746218384,-0.898045203979666,2.50238326833939,0.3664615470534934,-44.534579741260416,-5.10120406720924,9.415464759544212,0.14417512708049074,0.7557585443413849,-0.3782295562467126,0.5147668969229963
9.101426288003836,-0.5247157877345637,-3.101881874621838,-1.17076162625004,3.2363727586193454,0.258867234655799,-44.534579741260416,-5.10120406720924,9.415464759544212,0.1481645468626907,0.751894388217315,-0.37882394978343575,0.5188395812683922
9.174020288003838,-0.06462678773456365,-2.6947668746218385,-1.564921548532683,4.273970998929975,0.12144350001226943,-45.053693340652046,-5.10120406720924,9.715006179419472,0.1541943179317246,0.7465255188339514,-0.37926912209178115,0.5244794515278933
9.322151288003836,0.2561602122654364,-3.399124874621838,-1.86746564771964,5.103836661009733,0.018109536318693165,-45.57280694004366,-5.10120406720924,10.014547599294733,0.1602091029764354,0.741084095223268,-0.3796774335328148,0.5300683480425249
9.446738288003838,0.25125521226543635,-3.8827578746218383,-2.3074334815501265,6.2628801466618835,-0.10439861453729282,-45.57280694004366,-5.10120406720924,8.666611209856063,0.16897250895477486,0.7333545090004551,-0.3799097571304282,0.5378736206427395
9.432023288003837,-0.08326578773456368,-5.133532874621839,-2.645132002530753,7.159860699797834,-0.19281873977257755,-45.57280694004366,-5.10120406720924,7.318674820417394,0.1779961438023299,0.7252383028785727,-0.38004941361900374,0.5458106082123723
9.350600288003836,-0.026367787734563664,-6.134152874621839,-3.08509983636124,8.37962593545612,-0.29934840132655544,-45.57280694004366,-5.10120406720924,7.318674820417394,0.18840677014067575,0.7156602855406454,-0.3798606459386105,0.5550127334864869
9.589964288003838,0.0697702122654363,-6.220480874621838,-3.390839633408598,9.290453930877392,-0.37072364108686356,-45.57280694004366,-5.10120406720924,7.318674820417394,0.20005504517094083,0.7046545457922979,-0.3793212218464617,0.5652922789609026
9.815594288003837,0.06486521226543629,-5.593621874621839,-3.70723292021013,10.476129395585724,-0.44742388039500636,-45.72112511129842,-4.569590421903543,6.3451652058227985,0.21188853525957832,0.6930669030489421,-0.37847916574946067,0.5757734255914314
9.953915288003838,-0.3187057877345638,-5.69858887462184,-3.849983399730746,11.331564131207202,-0.49642923513250314,-45.86944328255316,-4.037976776597853,5.371655591228205,0.22517772654674606,0.6791942604473971,-0.3764683892936697,0.5884400563397961
10.103027288003837,-0.6061387877345639,-5.487673874621839,-3.911769800580598,12.4043167933115,-0.5528888911052677,-45.20201151190679,-4.2658111960145835,2.975324232226125,0.23834677660552472,0.6649592408293058,-0.37425675205372727,0.600792731030981
10.280588288003836,-0.8209777877345639,-4.75977187462184,-3.8563747954515493,13.14043733060814,-0.5827165680218508,-44.534579741260416,-4.493645615431307,0.5789928732240472,0.2521123135804365,0.6490493581471715,-0.3712487542538486,0.6142871270788849
10.601375288003837,-0.950469787734564,-4.409554874621839,-3.6592957069748535,14.022504045285798,-0.6104149432510009,-45.49864785441629,-4.72148003484803,-1.8173384857780306,0.2659400103925004,0.6323038932898707,-0.36781232178944284,0.6278389867973859
10.471883288003838,-0.6963907877345639,-3.983800874621838,-3.424929404358551,14.611613754357704,-0.6189373859884891,-46.462715967572166,-4.949314454264753,-4.21366984478011,0.2795643903653258,0.6146902132652615,-0.36366719953913124,0.6416742641986954
10.357106288003838,-0.3422497877345638,-3.772885874621839,-3.061663555165459,15.277423702737753,-0.6061545945468827,-46.462715967572166,-4.949314454264753,-4.21366984478011,0.29294029641313657,0.5958982402108544,-0.3585012448293144,0.6561769026008328
10.945706288003837,0.26597021226543616,-3.0734328746218385,-2.7761643414534785,15.69395525537246,-0.5709984274239609,-46.462715967572166,-4.949314454264753,-4.21366984478011,0.3060907382376314,0.5766477767397817,-0.3530590516164026,0.670175430479166
12.488819288003837,0.08840921226543597,-1.8707268746218384,-2.385200117031237,16.13285669302998,-0.5145387714511963,-44.97953425502467,-4.72148003484803,-7.209084043532709,0.3185178541230212,0.5563706684255029,-0.3458846279551897,0.6850999051707168
14.127089288003837,-1.3242307877345645,-0.44827687462183824,-2.067742179385988,16.385332531964973,-0.47192655776375475,-43.49635254247717,-4.493645615431307,-10.204498242285307,0.33067747660258345,0.5356263163348607,-0.33841972809002957,0.6994490284193455
14.251676288003837,-2.3827297877345646,-0.7357098746218382,-1.6288389963992178,16.629284182833228,-0.43677213597008496,-42.383966258066536,-4.949314454264753,-13.649224570850798,0.3422339245799213,0.5145086383806654,-0.3297765428003857,0.7137256011359859
14.452781288003838,-2.4690577877345645,0.011812125378161786,-1.3092500117372843,16.74753373031435,-0.4101401569139035,-41.27157997365591,-5.404983293098207,-17.093950899416285,0.3532947234741942,0.4929931426518021,-0.3202996076809387,0.7277010107063407
14.471420288003838,-1.9089067877345642,0.4758251253781618,-0.9108279954212707,16.81784257390169,-0.3611348021764067,-41.27157997365591,-5.404983293098207,-17.093950899416285,0.3638343061517684,0.47110714199166814,-0.31041010402951313,0.741166800219688
13.843580288003837,-1.3389457877345645,0.8878451253781618,-0.6540918077821568,16.82423396962249,-0.3153286359578155,-41.27157997365591,-5.404983293098207,-17.093950899416285,0.3733778892128919,0.4489986629228783,-0.29982535281132894,0.754383132335258
13.547318288003837,-0.7209157877345643,1.606918125378162,-0.35793910431600306,16.794406292705908,-0.2354309534600191,-39.936716432363156,-4.949314454264753,-20.688447937919406,0.3825979129952646,0.42650109363823646,-0.2889807809725486,0.7669457362327223
12.397586288003836,0.29932421226543593,1.7266001253781618,-0.17044710942051217,16.749664777331034,-0.15766431797890776,-38.60185289107041,-4.493645615431308,-24.28294497642252,0.39077443785632016,0.4039309533307656,-0.2778283338495527,0.7790677381138033
12.066989288003839,0.136478212265436,3.2834471253781623,0.006391395720805277,16.67296279269364,-0.05006826025196133,-36.080443979739655,-3.658252744236644,-27.57790059505038,0.3985028849084254,0.3810680045495708,-0.26643131824830296,0.7905675045717111
10.988870288003836,0.7064392122654362,3.2402831253781623,0.09374687011237345,16.620763485424995,0.03515442179366979,-33.5590350684089,-2.822859873041995,-30.872856213678233,0.4058829121216113,0.3577614009970068,-0.25480639199785415,0.8014608812670622
10.418909288003837,0.9271642122654362,4.025083125378162,0.15659792180594126,16.545126151631315,0.14381513036433277,-33.5590350684089,-2.822859873041995,-30.872856213678233,0.4129028341477162,0.3340157137612974,-0.2429604042660674,0.8117357910503787
9.834233288003837,-0.16959378773456374,3.982900125378162,0.164055713699713,16.51210277685433,0.205601531214184,-33.5590350684089,-2.822859873041995,-30.872856213678233,0.4195548857320955,0.3099835361563275,-0.23095847607447878,0.8213051123058359
9.139685288003838,0.07467521226543636,3.5708801253781624,0.10759431239769646,16.49186219351895,0.2695207244099723,-30.963467071450772,-3.734197550708895,-32.37056331305453,0.42572789295871943,0.28569190793076416,-0.21925073227189384,0.8300993984445764
8.881682288003837,-0.5678797877345637,4.643113125378162,0.021305234179096803,16.504644984960557,0.29721735430987034,-28.36789907449264,-4.645535228375788,-33.86827041243083,0.43154218188244486,0.26115955571680405,-0.20735824781244663,0.8381942428686161
8.320550288003837,-0.9269257877345636,4.591120125378161,-0.13848838548724404,16.555779641385488,0.30467514620364217,-24.956581135633385,-3.962031970125619,-36.41437248137055,0.43707019338762787,0.2362293115231271,-0.19558540174690098,0.8455245171211266
7.5445792880038365,-1.2143587877345634,4.815769125378162,-0.26525863037660014,16.61863243840831,0.2961527034661538,-21.545263196774133,-3.2785287118754427,-38.96047455031025,0.4422595624329926,0.21102911950654935,-0.18376381527340774,0.852117392354498
7.185533288003835,-1.2908767877345635,4.911907125378161,-0.44849027656797286,16.72729314697897,0.2546051406224288,-17.763149829778,-3.3544735183476866,-40.08375487484248,0.447203789767832,0.18543348861853548,-0.1718692053463362,0.8579534765764792
6.452726288003835,-1.0750567877345631,4.705897125378161,-0.5944364539489906,16.814646876041287,0.2077325782308691,-13.981036462781873,-3.4304183248199234,-41.2070351993747,0.45201549808429203,0.15924822433190622,-0.15998869017923736,0.8629748614840855
5.628686288003836,-0.9367357877345632,4.624474125378161,-0.7606214693361346,16.92011188675155,0.12783489573307266,-13.981036462781873,-3.4304183248199234,-41.2070351993747,0.45643161077663674,0.1329235889375748,-0.14796815586235765,0.8672409867150496
4.354367288003836,-1.290876787734563,4.393939125378162,-0.8650218292026796,16.972311194020193,0.06711314572693795,-13.981036462781873,-3.4304183248199234,-41.2070351993747,0.46073713974786795,0.10640136640416191,-0.1357810682101445,0.870611014632823
3.3635572880038365,-1.482171787734563,4.308592125378162,-0.9683557928962558,16.98935607949517,-0.015980234631260082,-10.569718523922617,-3.2025839054032077,-42.03077410403167,0.4646498521282291,0.07978148582232805,-0.12347248242451238,0.8732067198098772
1.9597462880038357,-2.0903917877345632,4.413559125378161,-1.0035102146899255,16.943548167947327,-0.07457093762070972,-7.158400585063363,-2.974749485986478,-42.85451300868863,0.46827500742976796,0.053458414092822426,-0.11118595617606554,0.874927653311144
1.4898472880038356,-2.531841787734563,3.7572701253781617,-0.9800739334941457,16.78907954782882,-0.14701082822473438,-2.8571736186756085,-2.746915066569755,-43.2289397835327,0.4715918457641469,0.027361621566478013,-0.09890165863551421,0.8758258586004198
1.2602932880038353,-3.3215467877345626,3.493381125378162,-0.9108279954212708,16.584542667458354,-0.19814548464966425,1.4440533477121489,-2.519080647153025,-43.60336655837678,0.4744945168392559,0.0016167386371229698,-0.08659633893455576,0.8759871081978273
0.5990992880038354,-3.6668587877345624,3.2834471253781623,-0.7371851881403549,16.183991349454907,-0.258867234655799,1.4440533477121489,-2.519080647153025,-43.60336655837678,0.47695919887718025,-0.022570754277132423,-0.07448275046060576,0.875472902802607
0.11056128800383538,-3.4843927877345626,2.981299125378162,-0.5592802868260691,15.782373635278493,-0.2929570056057522,1.4440533477121489,-2.519080647153025,-43.60336655837678,0.4790718311757612,-0.046741587426352135,-0.06231418530744699,0.8743124995607904
-0.7664527119961646,-3.867963787734563,2.794909125378162,-0.2876302607286637,15.099518801423466,-0.31639328680153206,5.077848543453527,-2.1393566147918226,-42.92939836365745,0.4808339760566142,-0.0683938362479328,-0.050298103105129346,0.8726918536670915
-1.7523577119961649,-3.6236947877345624,3.192214125378162,-0.04474326070412486,14.46779687866412,-0.3195889846619337,8.711643739194908,-1.7596325824306132,-42.25543016893811,0.48230505649072,-0.08943419780535389,-0.03829698668001739,0.870584112856206
-3.0561067119961645,-3.776730787734562,3.3736991253781623,0.31319758894113214,13.494116086220027,-0.29402165644946876,11.752166249917288,-1.3799085500694033,-41.88100339409404,0.48343684342454313,-0.1085203007050039,-0.02656221177895265,0.8682203704475145
-4.445202711996165,-4.083783787734562,3.9250211253781617,0.611479594094719,12.653596934386094,-0.25034479191831066,14.792688760639667,-1.0001845177082007,-41.50657661924996,0.4842757971174635,-0.12506293548349717,-0.015194055541740015,0.8657975255050633
-5.000448711996166,-3.6766687877345623,4.293877125378161,1.0130973082711339,11.40187297479454,-0.16086001583930937,14.792688760639667,-1.0001845177082007,-41.50657661924996,0.4849010743403791,-0.1412924657653015,-0.00389483324699694,0.863071386094734
-6.346380711996165,-3.647238787734562,4.883458125378161,1.319903501491461,10.379188572942203,-0.07030884358733958,14.792688760639667,-1.0001845177082007,-41.50657661924996,0.485092046989548,-0.1526966839300174,0.006033947482893984,0.8610069803097071
-7.2802927119961645,-3.508917787734562,6.176416125378162,1.7108677259137026,8.89096726371766,0.08522442737488312,17.61073401447992,-1.7596325824306143,-40.53306700465537,0.48517002466428377,-0.16406533367425777,0.015961322694500693,0.8587420157599459
-8.368221711996163,-3.025284787734562,6.660049125378162,2.000627288329801,7.696771101601094,0.2269085107225308,20.428779268320174,-2.519080647153028,-39.559557390060775,0.4849088971840564,-0.17159555205687968,0.02466000211123354,0.8572107163597005
-8.506542711996163,-2.1914347877345617,7.273174125378161,2.321282669164703,6.050887219726897,0.4452945787075733,23.469301779042556,-2.2153014212640683,-38.13673564565329,0.4844783592830592,-0.17724413738374978,0.032755934643222726,0.8560328754756646
-8.909733711996164,-1.9569757877345615,6.664954125378162,2.4959901272893354,4.799163260135344,0.626395177882261,26.509824289764932,-1.9115221953750952,-36.7139139012458,0.48387202266901735,-0.18132475116393393,0.040107544581230385,0.8552079192577651
-9.240330711996165,-1.7028967877345615,6.703213125378162,2.625957815368345,3.1468879825403437,0.8714132249234848,26.36150611851018,-2.670970260097515,-36.41437248137055,0.48292679489179274,-0.1816111231849884,0.04564820429752194,0.8554036194425644
-9.493428711996163,-1.2526177877345614,7.206466125378161,2.6461983987037234,1.9345787934465783,1.0567741728022906,26.21318794725543,-3.4304183248199283,-36.11483106149528,0.48196625221497336,-0.18189173583185417,0.05118741638721928,0.8555721924919774
-9.493428711996163,-1.1613847877345616,8.010886125378162,2.578018856803816,0.3813771308410366,1.2922051262623095,26.21318794725543,-3.4304183248199283,-36.11483106149528,0.48071751638920174,-0.17834833455074275,0.054143083086551934,0.8568378303701683
-8.846949711996164,-1.0995817877345615,8.901634125378163,2.4757495439539565,-0.7361205372966407,1.4562608399620207,26.21318794725543,-3.4304183248199283,-36.11483106149528,0.47942907517456274,-0.1744225201513334,0.05684191744931743,0.8581920197496635
-8.176926711996163,-0.7591747877345616,9.845356125378162,2.3021067366730406,-2.1465734657108184,1.6352303921200233,27.77052874543031,-4.1139215830701055,-35.291092156838324,0.4779287612284704,-0.1683331167060336,0.05833447217225872,0.8601425174743061
-7.060548711996165,-0.5100007877345616,10.080796125378162,2.1497691635712193,-3.131972398752801,1.7396307519865681,29.327869543605185,-4.797424841320275,-34.467353252181354,0.4762214663467387,-0.160313566819946,0.05875214355490595,0.8625896248574597
-6.495492711996165,-0.5384497877345618,9.544189125378162,1.9036864656862786,-4.335759145109078,1.8493561114009476,28.21548325919456,-5.404983293098216,-34.018041122368466,0.4744538537546058,-0.15186610516949178,0.05866867459788689,0.8650943378493353
-6.0069547119961655,-0.5050957877345618,9.356818125378163,1.6821046998408342,-5.158168760624317,1.9090114652341137,27.103096974783927,-6.012541744876149,-33.56872899255558,0.472488120778142,-0.14101920966878478,0.05573413688690933,0.8681948307916852
-5.590029711996165,-0.4099387877345618,10.027822125378163,1.3582536211455303,-6.163808277001678,1.9718642622569336,27.103096974783927,-6.012541744876149,-33.56872899255558,0.47045636050857126,-0.13015260760556105,0.052791810674950534,0.8711739988751744
-5.063232711996164,0.021701212265438106,10.238737125378163,1.108973480070936,-6.869034741208767,2.0048893823631704,27.103096974783927,-6.012541744876149,-33.56872899255558,0.4682459267230377,-0.1175018751077491,0.04819086821247561,0.8744236397046771
-4.909215711996165,0.11783921226543809,10.818508125378163,0.8032336830235773,-7.759623898623913,2.0304567105756353,26.21318794725543,-6.544155390181839,-35.06643609193188,0.4659043117175047,-0.10429349872961959,0.04308125326500731,0.8776104170204965
-4.732635711996165,-0.011652787734561939,11.310970125378164,0.5976321518093933,-8.401997565808182,2.0368481062964383,25.323278919726928,-7.075769035487528,-36.564143191308176,0.4634668237071334,-0.09022249906704385,0.03707776074080858,0.8807290409901141
-4.717920711996165,-0.09307578773456195,11.134390125378163,0.357939104316004,-9.220145087290053,2.046435199877643,23.914256292806808,-7.303603454904251,-36.7139139012458,0.4609070774420183,-0.07479794049918817,0.029665155405283857,0.8837929127435442
-4.900386711996165,0.4955242122654381,11.071606125378164,0.19281873977257635,-9.809254796361959,2.0549576426151317,22.505233665886674,-7.531437874320974,-36.86368461118343,0.45820574963232413,-0.05933660015542478,0.02223134271304883,0.8865846977514614
-5.120130711996165,0.9320692122654382,11.790679125378164,-1.291696779066839e-15,-10.547504635346032,2.0581533404755334,22.505233665886674,-7.531437874320974,-36.86368461118343,0.4554508795280819,-0.04183854194052785,0.013015129070317037,0.8891820056437661
-4.296090711996165,0.568118212265438,11.196193125378162,-0.12357454702895589,-11.070565849534717,2.0560222934588483,22.505233665886674,-7.531437874320974,-36.86368461118343,0.4525113441535363,-0.02432352003974554,0.0037936383660275167,0.8914187893987786
-4.296090711996165,0.47198021226543807,11.450272125378163,-0.2833681666952968,-11.694829980400291,2.037912757140155,21.022051953339176,-8.290885939043394,-38.810703840372625,0.4495098014396412,-0.005980736217881344,-0.006171515217849365,0.8932340575705243
-2.945253711996164,0.4435312122654379,11.943715125378164,-0.4016177141764167,-12.104970137314197,2.0038229861902015,19.53887024079167,-9.050334003765807,-40.75772306956181,0.4463732601912833,0.012853139434184794,-0.016576954405640935,0.8946009803121858
-1.302078711996164,0.6250162122654377,11.363944125378161,-0.5582156359823559,-12.566243205323778,1.9324494917591455,16.498347730069295,-9.354113229654773,-41.35680590931233,0.44308915755530476,0.03187342606253221,-0.027245514277099554,0.8954963791773496
-2.710794711996164,0.41410121226543783,10.995088125378164,-0.696704021469602,-12.845351023314954,1.8632035536862706,13.457825219346914,-9.65789245554374,-41.95588874906285,0.4397780693394429,0.05146918726081768,-0.038733210837132756,0.8957934532407734
-2.634276711996164,1.760033212265438,11.872102125378163,-0.8511726415881081,-13.110609653691556,1.779045522484356,10.862257222388786,-9.430058036127017,-42.330315523906926,0.43623521254539105,0.07103782354955511,-0.05020049450750557,0.8956184328786573
-1.3501477119961642,0.7113442122654378,10.463386125378163,-0.9502445112483144,-13.218205711418502,1.7193884233219379,8.266689225430655,-9.202223616710286,-42.704742298751,0.4328074935261608,0.09091003167942664,-0.062219369700649216,0.8947300094004346
-0.9047737119961643,0.4337212122654376,11.009803125378165,-1.1089734800709385,-13.249098039178802,1.614989808784645,8.266689225430655,-9.202223616710286,-42.704742298751,0.4291939735363682,0.1107851736829318,-0.0742941426777613,0.8933082103819949
-0.2867437119961642,0.07467521226543752,11.354134125378163,-1.2250919805353733,-13.205421174647645,1.52656968354936,8.266689225430655,-9.202223616710286,-42.704742298751,0.42544799801223615,0.13018765779085364,-0.08644833672647423,0.8913876035841749
-0.09544871199616424,-0.2608267877345625,10.338799125378163,-1.3635803660226193,-13.06586639298743,1.4200400219953824,6.190234827864152,-9.961671681432705,-44.2024493981273,0.42158757873748015,0.14908260089999262,-0.09868497234771188,0.888987945810231
-0.1189927119961642,0.0403402122654375,10.592878125378162,-1.4605229339953922,-12.923117658796066,1.3390776886538696,4.113780430297651,-10.721119746155118,-45.7001564975036,0.41756272433653274,0.1678093660116443,-0.1108381030240659,0.8861130305110346
0.2685022880038358,-0.3324397877345625,8.820211125378163,-1.5691818972368035,-12.689817752352731,1.2517239595915532,0.4058261489288975,-10.569230133210638,-44.80153223787782,0.4138291621004581,0.18567611905813547,-0.12266303221580246,0.8827364181534414
0.5412202880038358,-0.2853517877345626,8.001076125378162,-1.6213812045054499,-12.49060761685935,1.1910022095854185,-3.3021281324398593,-10.417340520266158,-43.90290797825204,0.40989514482019446,0.20345293229839884,-0.13442854456166378,0.8789322163847725
1.102352288003836,0.07467521226543734,8.863375125378163,-1.6661244652095764,-12.244523173645158,1.106844178383504,-3.3021281324398593,-10.417340520266158,-43.90290797825204,0.4058561347909092,0.22082220591073531,-0.14568462235120078,0.8748110321890599
2.4482842880038365,0.6063772122654372,7.766617125378161,-1.6554709754554031,-12.063422574470472,1.051447427925204,-3.3021281324398593,-10.417340520266158,-43.90290797825204,0.40166731565258945,0.23797202623729538,-0.15670371657760662,0.87033133200852
2.3904052880038362,-0.5050957877345628,6.794446125378162,-1.6405571369971115,-11.8833866261395,0.986465329214951,-5.526900701261112,-9.885726874960461,-44.2024493981273,0.3973477356636632,0.254902600371125,-0.16760477234518392,0.8654756389258554
3.229160288003836,-0.9602797877345629,6.032209125378162,-1.6256432985388198,-11.794968246233468,0.9534402091087144,-7.751673270082365,-9.35411322965477,-44.50199081800256,0.3929508202073514,0.2715062537073576,-0.17834128119800907,0.8602722792911665
3.5352322880038365,-0.979899787734563,4.561690125378162,-1.583031084851378,-11.765138823987632,0.9118943915942413,-10.12476401015837,-9.12627881023804,-42.92939836365745,0.3883820430952141,0.28799116059510443,-0.18899979039715603,0.8546926694725441
5.087174288003836,-0.5767087877345631,3.096076125378162,-1.5574637566389133,-11.810946735535476,0.8810003185046897,-12.497854750234373,-8.898444390821323,-41.35680590931233,0.3838191067057748,0.30481489223319763,-0.199664867741101,0.84847198857144
6.529244288003836,-0.4717417877345633,1.984603125378162,-1.5489413139014252,-11.978198147095588,0.8405191518339332,-12.497854750234373,-8.898444390821323,-41.35680590931233,0.3790879105980397,0.32151799863476943,-0.21024232531206405,0.8418531328204949
8.762000288003836,-0.7738897877345637,1.582393125378162,-1.5691818972368035,-12.17314793388485,0.8138871727777518,-12.497854750234373,-8.898444390821323,-41.35680590931233,0.37421792131073817,0.33858820450750154,-0.22101751522075222,0.8345479213945125
10.620014288003837,-1.056417787734564,1.007527125378162,-1.58622678271178,-12.50658610616136,0.7702103082465936,-15.760854517838878,-7.303603454904247,-41.50657661924996,0.3691876170912687,0.35586161030824526,-0.23189524307570641,0.8266121302849073
12.713468288003837,-1.6744477877345643,0.5042741253781619,-1.5968802724659534,-12.800607762610827,0.7169446048049787,-19.02385428544338,-5.708762518987169,-41.6563473291876,0.3639455038104415,0.37320126773329376,-0.24280218618853705,0.8181146511342365
13.710164288003838,-1.9324507877345645,0.1314941253781618,-1.6171208558013317,-13.209681523351763,0.6317219227593476,-21.471104111146758,-6.392265777237346,-39.93398416490485,0.35840223988873876,0.3913179503862368,-0.2541599572042481,0.8085918700445763
13.886744288003838,-1.8225787877345645,0.0500711253781618,-1.6309700434159067,-13.526074810153293,0.559280286826071,-23.918353936850135,-7.0757690354875225,-38.2116210006221,0.3526515957263848,0.4092082069689985,-0.2653706650958413,0.7986012180603298
13.700354288003837,-1.367394787734564,0.011812125378161786,-1.6522752775950018,-13.952195201698457,0.4900360940824479,-25.920649248789264,-7.151713841959765,-37.312996740996326,0.3464511437540609,0.42782410787175645,-0.27688053288817643,0.7875755888946778
13.422731288003837,-0.9073057877345643,0.12168412537816181,-1.6597330694887733,-14.260066045762501,0.46127306800958134,-27.92294456072839,-7.227658648432001,-36.41437248137055,0.3399727966105655,0.44637537246196424,-0.28831111894867806,0.7759150875674448
13.245170288003838,-0.8307877877345642,0.7102841253781618,-1.6490795797345998,-14.646768176151374,0.45701271930546317,-27.92294456072839,-7.227658648432001,-36.41437248137055,0.3329264162039095,0.46508181336229815,-0.29966674923404163,0.7635828361590903
12.904763288003837,-1.194738787734564,1.7834981253781619,-1.595815621622237,-14.92268029628215,0.47405760478043985,-27.92294456072839,-7.227658648432001,-36.41437248137055,0.32520495114313297,0.48403364166103047,-0.31095748801905165,0.7505055723558857
12.454484288003837,-1.7411557877345643,2.185708125378162,-1.4615875848391093,-15.229484744173224,0.5241258650324012,-30.296035300804395,-6.544155390181832,-33.56872899255558,0.3172131096292016,0.5026773795688143,-0.32201903328063014,0.7368819697578516
11.664779288003837,-2.2012447877345642,2.8037381253781617,-1.32842594422895,-15.429761275839574,0.5880433128989375,-32.6691260408804,-5.860652131931654,-30.723085503740606,0.3083882510062572,0.5215819046245734,-0.33274389600753024,0.7225859831737914
11.304752288003836,-2.478867787734564,1.6589111253781619,-1.1313451104230021,-15.612991176701694,0.7020307663466872,-34.7455804384469,-5.177148873681477,-29.225378404364307,0.29933066499698224,0.5400928141874446,-0.34321765118742575,0.7077446919397826
10.878998288003835,-1.875552787734564,2.272036125378162,-0.9790075373211812,-15.683301765618285,0.8085604279006651,-36.8220348360134,-4.493645615431308,-27.727671304988007,0.2895703268787943,0.5581133375012538,-0.35323398851964555,0.6927368025801882
10.563116288003837,-1.870647787734564,2.066026125378162,-0.7979069381464936,-15.658800833578791,0.9534402091087144,-36.8220348360134,-4.493645615431308,-27.727671304988007,0.2793678038947049,0.5756794557508638,-0.36289327757868284,0.6773885616554508
10.074578288003837,-2.703516787734564,-1.7559498746218383,-0.6871169278883974,-15.538420239080985,1.053578474941889,-36.8220348360134,-4.493645615431308,-27.727671304988007,0.26895730512037486,0.592589223444116,-0.3721959028851754,0.6617931626692548
9.475187288003838,-2.5455757877345637,-2.431858874621838,-0.6231994800218611,-15.242269280944083,1.1686305792333551,-38.37937563418828,-4.1139215830700975,-23.833632846609632,0.25835541951671154,0.6085388238053062,-0.381029307880984,0.6463355503635376
10.054958288003837,-2.425893787734564,-1.7657598746218381,-0.5933700577760259,-14.93439843688004,1.2165695377978836,-39.936716432363156,-3.734197550708894,-19.939594388231257,0.24757688170219683,0.6240723317585436,-0.3896021815910067,0.6304360018904375
8.584439288003837,-3.5040127877345633,-2.7045768746218384,-0.526256912049088,-14.441164899607939,1.2442661676977815,-40.82662545989166,-4.2658111960145835,-16.195326639790505,0.2371333143707563,0.638200259720621,-0.3972830325775549,0.6153327650418543
8.062547288003836,-2.5887397877345633,-0.7690638746218381,-0.44422818253460644,-14.042744628621177,1.24533256387075,-41.71653448742016,-4.797424841320266,-12.451058891349756,0.22659535245323167,0.6518610267537863,-0.4046715845450226,0.5999772134905758
6.884366288003836,-2.6269987877345637,-1.3007658746218382,-0.2823035158515805,-13.495182482392995,1.2176341886416,-41.71653448742016,-4.797424841320266,-12.451058891349756,0.216181425332765,0.6646735737697498,-0.4111968996731913,0.5851424966385531
6.241811288003836,-2.8663627877345634,-3.4570038746218383,-0.1363573384705626,-13.086106976322807,1.1750219749541586,-41.71653448742016,-4.797424841320266,-12.451058891349756,0.20587920730625056,0.6767415969949713,-0.4169689549302965,0.5707639210041069
5.949473288003835,-1.9952347877345633,-2.134615874621838,0.08415803120191304,-12.564112158307092,1.095126037785614,-42.68060260057604,-4.037976776597853,-9.680300757503602,0.19559100922872513,0.6883642802671425,-0.4223607040339233,0.5563364184099013
6.816677288003836,-2.1433657877345635,-4.749961874621839,0.2546051406224273,-12.17314793388485,1.0120326574274159,-43.64467071373191,-3.27852871187544,-6.909542623657451,0.18584410032974025,0.699069132000743,-0.42661061756986945,0.54292513299074
8.762000288003836,-2.033493787734564,-6.996451874621839,0.4346410889533984,-11.607476251337976,0.8437148496943347,-43.49635254247717,-2.2153014212640603,-3.6894723599984047,0.1760214561639344,0.7094890987842999,-0.43068667856547144,0.529292594490432
10.332581288003837,-2.119821787734564,-6.7855368746218385,0.48364469836164325,-11.134483297401252,0.6753987872905056,-43.34803437122241,-1.1520741306526734,-0.4694020963393619,0.1673086128779568,0.7189262373621291,-0.4337280132797338,0.5167522653899069
12.224930288003838,-2.626998787734564,-8.654341874621839,0.4602084171658635,-10.444170671652454,0.3920288752659583,-43.64467071373191,-1.3039637435971603,1.5525024878186429,0.15888605123862773,0.7279299708834309,-0.43637947803337857,0.504426537131781
12.919478288003837,-3.1302517877345646,-7.926439874621839,0.4026823650201305,-9.877432592932614,0.14275047952061623,-43.94130705624141,-1.4558533565416472,3.574407071976646,0.15125713324771345,0.7363019504073087,-0.43847942782771443,0.4926626724645949
12.756632288003836,-2.646618787734564,-7.380022874621839,0.3025440991869559,-9.072069608221602,-0.205601531214184,-43.94130705624141,-1.4558533565416472,3.574407071976646,0.14488903495533006,0.7438697653938467,-0.43983194965561145,0.48188462908123625
11.884523288003836,-2.287572787734564,-6.690379874621839,0.24395339619750636,-8.441412336305971,-0.44955492741169145,-43.94130705624141,-1.4558533565416472,3.574407071976646,0.1385136639800324,0.7512624533776786,-0.44107537750483283,0.4710320608989875
10.725962288003837,-1.832388787734564,-5.497483874621839,0.20453688037046655,-7.575325856259572,-0.725467047542467,-43.86714797061404,-1.2280189371249168,6.494935915760429,0.1339188971112286,0.7574268192255106,-0.44117592319259474,0.46231390559835
9.844043288003837,-1.7892247877345637,-4.898092874621839,0.21519037012463998,-6.918038350617011,-0.8884581103984615,-43.79298888498666,-1.0001845177081936,9.415464759544212,0.1293060340992237,0.763488835782236,-0.4412168538233697,0.4535332789152565
9.345695288003837,-2.119821787734564,-3.5904198746218383,0.2684543282370031,-5.9965568654415655,-1.0386646364835974,-44.089625227496164,-1.076129324180437,10.688515794014068,0.1257109038568349,0.7685093311374002,-0.4406631143366491,0.4465492092360811
8.986649288003838,-2.3209267877345634,-2.9821998746218386,0.3100018910807282,-5.26256737516161,-1.1174959228084254,-44.386261570005665,-1.1520741306526734,11.961566828483921,0.12270756122669882,0.7729249745504663,-0.439764272993862,0.4406100570029439
8.665862288003837,-1.9756147877345636,-1.9521498746218384,0.3558098026285715,-4.213249248923839,-1.173957324110442,-44.386261570005665,-1.1520741306526734,11.961566828483921,0.12017577414540079,0.7768316310951832,-0.4387275515516635,0.43544062252852966
8.393144288003837,-1.7028967877345638,-2.264107874621838,0.366461547053493,-3.3674033522128193,-1.1910022095854185,-44.386261570005665,-1.1520741306526734,11.961566828483921,0.11906431965667309,0.7793472192821673,-0.4373502041110973,0.43262732061883097
8.071376288003837,-1.4056537877345636,-2.4985668746218384,0.33450282312022495,-2.158291606308708,-1.1707616262500404,-43.57051162810454,-1.2280189371249168,13.234617862953776,0.11795079639340911,0.7818492661018728,-0.4359652575932561,0.4298065016932267
8.354885288003837,-1.5204307877345637,-2.862517874621838,0.2663250265495706,-1.1984582561499384,-1.1292140634063152,-42.75476168620341,-1.3039637435971603,14.507668897423631,0.11873081912271885,0.7824479414186761,-0.4345322928530246,0.429953367271403
8.685482288003836,-1.4105587877345638,-2.8105248746218385,0.136357338470561,0.11292105727478112,-1.0386646364835974,-42.606443514948666,-1.9874670018473302,15.481178512018225,0.11979061735578958,0.7827636224235994,-0.43309138015548854,0.4305382396940112
9.106331288003837,-1.0564177877345637,-2.2258488746218386,0.025567328212465067,1.0866035950481256,-0.9385263706504229,-42.45812534369391,-2.6709702600975067,16.45468812661282,0.12187783237574826,0.7819650028479018,-0.43166507419227573,0.4328299804993263
10.031414288003837,-1.2575227877345638,-1.622533874621838,-0.1118564064310643,2.3681552315562624,-0.7744706569507118,-42.45812534369391,-2.6709702600975067,16.45468812661282,0.12502954634592378,0.7799924663706409,-0.43024479486347245,0.4368853184057182
10.558211288003836,-1.669542787734564,-1.2772218746218382,-0.20240583335378198,3.2960281124525115,-0.630655526586379,-42.45812534369391,-2.6709702600975067,16.45468812661282,0.12837689500290078,0.7777362143480316,-0.4288605391486895,0.4412758680033416
11.041844288003837,-2.148270787734564,-1.3684548746218383,-0.3217200316786182,4.501944160496222,-0.42185829751179343,-42.90307985745817,-2.9747494859864734,16.080261351768744,0.13333300025550243,0.7733327409307713,-0.42785148605614964,0.448466151149573
11.194880288003835,-1.9707097877345638,-1.8040188746218382,-0.41333585477430446,5.394664364928053,-0.2567361876391139,-43.34803437122241,-3.27852871187544,15.70583457692467,0.1382762159513331,0.7688545079547513,-0.4268010717401424,0.4556130802131387
11.262569288003837,-1.151574787734564,-2.8105248746218385,-0.5720648235969286,6.580339829636385,-0.02130523417909478,-43.86714797061404,-3.27852871187544,15.70583457692467,0.1446509912568321,0.7624858922525569,-0.4259084361231325,0.4650734983670707
11.075198288003836,-0.6777517877345639,-3.658108874621838,-0.7137489069445762,7.4762539865993665,0.15233757310182108,-44.386261570005665,-3.27852871187544,15.70583457692467,0.15153471498066826,0.7552979691495957,-0.425008697398593,0.4753207496941153
10.721057288003836,-0.3854137877345638,-4.644994874621839,-0.9278728808962483,8.655538055586895,0.3749839897909817,-44.682897912515166,-2.74691506656975,13.833700702704295,0.15910843953909698,0.7471260989633078,-0.4241045759563744,0.4864384908374002
10.558211288003836,-0.524715787734564,-5.401345874621838,-1.0887328967355576,9.525884884337412,0.533712958613606,-44.97953425502467,-2.2153014212640603,11.961566828483921,0.1679821654415604,0.7371828082541585,-0.4232289649648131,0.4992201343324308
10.409099288003837,-0.6826567877345638,-6.230290874621838,-1.2826180326811036,10.63059801570423,0.7212066988383489,-44.97953425502467,-2.2153014212640603,11.961566828483921,0.17679848358234643,0.7269875859494288,-0.42220871583567504,0.5118311697726071
10.505237288003839,-0.7876237877345639,-6.771802874621839,-1.401930485676688,11.41359111539243,0.8469105475547365,-44.97953425502467,-2.2153014212640603,11.961566828483921,0.18688941475358484,0.7143289539601044,-0.420852297225082,0.5269628412968956
